File: shares/flx_lsms_hydrogen/EXPERIMENTAL_DATA/LABO_SOETE/WP1_TENSILE/AIR/MTS/LYARR10/specimen.dat
MTS793|MPT|ENU|1|2|.|/|:|1|0|0|A

Data Acquisition						Time:	15.0205	s	12/17/2021 3:49:39 PM
Time	ESH B Force	ESH B Displacement	Analog In 2	Analog In 1
s	kN	mm	V	V
0.0332031	0.1639927	1.00073	-0.0044087	-0.0124714
0.355469	0.170869	1.00101	-0.00454091	-0.0127216
0.677734	0.172149	1.000962	-0.00445696	-0.0125237
1	0.176551	1.00351	-0.00444253	-0.0122281
1.32227	0.1821309	1.00282	-0.00446653	-0.012522
1.64453	0.174724	1.00182	-0.0044678	-0.0125093
1.9668	0.182169	1.00478	-0.00441206	-0.0123416
2.28906	0.1861915	1.00414	-0.00445165	-0.0125508
2.61133	0.190649	1.00567	-0.00449691	-0.0127127
2.93359	0.191015	1.00806	-0.00445448	-0.0124258
3.25586	0.198954	1.00732	-0.00450451	-0.0125593
3.578125	0.199198	1.00874	-0.00450156	-0.012721
3.90039	0.19776	1.0094	-0.00445858	-0.0123775
4.22266	0.192636	1.00999	-0.00442599	-0.0123009
4.54492	0.194791	1.0102	-0.0044961	-0.0126033
4.86719	0.191677	1.01003	-0.00439768	-0.0124357
5.18945	0.190994	1.01199	-0.00441927	-0.0122724
5.51172	0.1948	1.01153	-0.00447839	-0.0127175
5.83398	0.200594	1.013002	-0.00448662	-0.0125781
6.15625	0.207215	1.01376	-0.00442798	-0.0123989
6.47852	0.21463	1.01488	-0.00450278	-0.01262516
6.80078	0.221011	1.0152	-0.00453737	-0.0124127
7.12305	0.226318	1.01681	-0.0044171	-0.0119163
7.44531	0.227013	1.01696	-0.00448534	-0.0121383
7.76758	0.223455	1.01682	-0.0044955	-0.0122526
8.08984	0.227413	1.01806	-0.00444856	-0.0119966
8.41211	0.227717	1.01841	-0.00441386	-0.0120711
8.734375	0.231685	1.02	-0.004501095	-0.0125177
9.05664	0.229658	1.02096	-0.00448964	-0.0121878
9.37891	0.2375015	1.02088	-0.004470258	-0.0121588
9.70117	0.240851	1.02122	-0.00445892	-0.0123812
10.0234	0.246786	1.02244	-0.00445839	-0.0123401
10.3457	0.252868	1.02267	-0.00439057	-0.0119521
10.668	0.263621	1.02407	-0.00448024	-0.0122694
10.9902	0.265689	1.02477	-0.004441177	-0.012245
11.3125	0.273883	1.02528	-0.004395985	-0.0120301
11.6348	0.28442	1.02648	-0.00443671	-0.0122277
11.957	0.291322	1.02724	-0.00448422	-0.0124923
12.2793	0.291559	1.02874	-0.00449039	-0.0121956
12.6016	0.3047919	1.03058	-0.004464794	-0.0122266
12.9238	0.304724	1.02878	-0.0045043	-0.0124453
13.2461	0.312299	1.03075	-0.004424904	-0.01187625
13.5684	0.318018	1.03044	-0.00444712	-0.0117464
13.8906	0.323109	1.02812	-0.0044816	-0.0119895
14.2129	0.322198	1.03464	-0.004458989	-0.011886
14.5352	0.325687	1.03194	-0.00440328	-0.0116988
14.8574	0.332461	1.0347	-0.00447859	-0.0120929
15.1797	0.341671	1.03564	-0.00449375	-0.0120928
15.502	0.346843	1.03214	-0.00443028	-0.0118758
15.8242	0.3444	1.03659	-0.00448295	-0.0119952
16.1465	0.337912	1.03151	-0.00447288	-0.012149
16.46875	0.344735	1.03426	-0.00445921	-0.0117632
16.791	0.3468774	1.03604	-0.0044067	-0.011859
17.1133	0.347297	1.0386	-0.00446241	-0.0119839
17.4355	0.348458	1.03985	-0.00440957	-0.0118379
17.7578	0.34678	1.0388	-0.00439692	-0.0117605
18.0801	0.347459	1.041308	-0.00453075	-0.012204
18.4023	0.350123	1.04101	-0.00449918	-0.01208177
18.7246	0.357537	1.0421	-0.00445633	-0.01191102
19.0469	0.3594009	1.04374	-0.00448116	-0.0121248
19.3691	0.359517	1.04344	-0.00450936	-0.0121982
19.6914	0.367356	1.04367	-0.00441691	-0.0117365
20.0137	0.369441	1.04475	-0.00443627	-0.0119023
20.3359	0.362788	1.04547	-0.00447923	-0.0120406
20.6582	0.371882	1.04594	-0.00444178	-0.0118034
20.9805	0.373968	1.046713	-0.00444211	-0.0117674
21.3027	0.376517	1.04746	-0.004538178	-0.0122197
21.625	0.380248	1.04879	-0.00446495	-0.0119553
21.9473	0.388115	1.04924	-0.00447618	-0.0119004
22.2695	0.392926	1.04956	-0.00450489	-0.0121495
22.5918	0.402651	1.05037	-0.00448713	-0.0117925
22.9141	0.411177	1.0522	-0.0044196	-0.0113805
23.2363	0.416951	1.052509	-0.00444387	-0.0116347
23.5586	0.419499	1.05257	-0.00446021	-0.01169188
23.8809	0.422114	1.05237	-0.00443859	-0.0114451
24.2031	0.424489	1.05398	-0.0044425	-0.0115966
24.5254	0.433612	1.05508	-0.00454865	-0.0119318
24.8477	0.431283	1.05597	-0.00445895	-0.0116677
25.1699	0.437103	1.056728	-0.00446792	-0.0116308
25.4922	0.43871	1.05734	-0.00450507	-0.011876
25.8145	0.4442555	1.05807	-0.00445698	-0.0116933
26.1367	0.452037	1.05906	-0.00444876	-0.0114177
26.459	0.471893	1.05942	-0.00445841	-0.0117084
26.78125	0.478897	1.06081	-0.00443599	-0.0116502
27.1035	0.490613	1.06173	-0.0043926	-0.01143
27.4258	0.496892	1.0617	-0.00443496	-0.0116933
27.748	0.5116396	1.063	-0.00448723	-0.0119429
28.0703	0.514097	1.06289	-0.00441634	-0.0115789
28.3926	0.4983708	1.06271	-0.004474611	-0.0117
28.7148	0.513659	1.06543	-0.00447026	-0.0119036
29.0371	0.506935	1.065569	-0.00444718	-0.0112854
29.3594	0.517193	1.06571	-0.00442839	-0.0111785
29.6816	0.523292	1.06626	-0.00447525	-0.0114334
30.0039	0.535078	1.06813	-0.00439716	-0.0113236
30.3262	0.550333	1.06828	-0.00437555	-0.0111079
30.6484	0.570805	1.06931	-0.00448495	-0.0114748
30.9707	0.577843	1.06993	-0.0045158	-0.011557
31.293	0.587977	1.07083	-0.00443717	-0.0112682
31.6152	0.634433	1.05814	-0.00452309	-0.01139793
31.9375	0.691487	1.06193	-0.00453571	-0.0112437
32.2598	0.793114	1.07333	-0.00445581	-0.0108903
32.582	0.889132	1.07171	-0.00448724	-0.0105657
32.9043	0.8029387	1.07381	-0.00449014	-0.0108177
33.2266	0.8085528	1.07489	-0.00441364	-0.0106622
33.5488	0.829544	1.075358	-0.00444399	-0.0104886
33.8711	0.860009	1.07587	-0.00458059	-0.0109061
34.1934	0.892293	1.07654	-0.0044958	-0.0108152
34.5156	0.914916	1.07741	-0.00449435	-0.01065952
34.8379	0.968655	1.07706	-0.00451034	-0.0105815
35.1602	1.02325	1.07922	-0.00454213	-0.01068813
35.4824	1.03141	1.08064	-0.00442348	-0.0102059
35.8047	1.04687	1.08514	-0.00447472	-0.0103122
36.127	1.034628	1.08043	-0.00450588	-0.0105161
36.4492	1.01681	1.07889	-0.00440643	-0.010294
36.7715	1.05225	1.08203	-0.00442244	-0.0102178
37.09375	1.02458	1.09108	-0.00454849	-0.0104252
37.416	1.0491	1.084082	-0.00450115	-0.01048298
37.7383	1.08836	1.08312	-0.004452555	-0.0100601
38.0605	1.09524	1.08448	-0.0045488	-0.0103321
38.3828	1.128438	1.08662	-0.00450643	-0.0103072
38.7051	1.138929	1.0851	-0.00444829	-0.00987626
39.0273	1.14508	1.08845	-0.00449686	-0.01020531
39.3496	1.15384	1.09191	-0.00450467	-0.0102449
39.6719	1.1733	1.08901	-0.00442137	-0.00995903
39.9941	1.15479	1.09193	-0.00444618	-0.010102
40.3164	1.111346	1.09213	-0.00453721	-0.0101461
40.6387	1.21378	1.09468	-0.004494959	-0.00985806
40.9609	1.23287	1.09643	-0.00447982	-0.009806294
41.2832	1.2471	1.09514	-0.00454566	-0.0100406
41.6055	1.2641	1.09305	-0.004490661	-0.00989564
41.9277	1.269305	1.09576	-0.00447087	-0.00960211
42.25	1.32131	1.09447	-0.00445744	-0.009942146
42.5723	1.32533	1.095253	-0.00446773	-0.00949467
42.8945	1.320539	1.09725	-0.00444257	-0.00929926
43.2168	1.30979	1.09841	-0.00451536	-0.009613188
43.5391	1.36696	1.09647	-0.00450054	-0.00972454
43.8613	1.36088	1.09665	-0.00445557	-0.00946294
44.1836	1.33551	1.10459	-0.00447005	-0.00963407
44.5059	1.340371	1.09829	-0.00450914	-0.00976729
44.8281	1.34649	1.09935	-0.00440671	-0.00938063
45.1504	1.36794	1.10411	-0.004441536	-0.00935867
45.4727	1.38034	1.10257	-0.00448968	-0.009579204
45.7949	1.34578	1.10099	-0.00445511	-0.0094282
46.1172	1.31656	1.10241	-0.00440646	-0.00934731
46.4395	1.362911	1.10375	-0.00451736	-0.00975944
46.7617	1.36381	1.10663	-0.00450506	-0.00969043
47.084	1.3668	1.1065	-0.0044685	-0.00946364
47.40625	1.38495	1.10707	-0.00456814	-0.00966185
47.7285	1.34512	1.10836	-0.00448854	-0.00950546
48.0508	1.41869	1.10849	-0.00444039	-0.00902319
48.373	1.390553	1.10739	-0.00445513	-0.00944953
48.6953	1.40891	1.10944	-0.00451053	-0.00930619
49.0176	1.42809	1.11094	-0.00444592	-0.009047444
49.3398	1.45282	1.11037	-0.00444147	-0.00904183
49.6621	1.61434	1.11177	-0.00450024	-0.00923286
49.9844	1.81501	1.11297	-0.00446033	-0.00868763
50.3066	1.84571	1.11289	-0.00443301	-0.00828376
50.6289	1.82401	1.11684	-0.00449813	-0.0084972
50.9512	1.824	1.11303	-0.00451973	-0.00883498
51.2734	1.82602	1.11567	-0.004466149	-0.00840199
51.5957	1.84194	1.11793	-0.00446126	-0.0083106
51.918	1.83607	1.11928	-0.00447754	-0.008691364
52.2402	1.81606	1.11712	-0.00442571	-0.00848772
52.5625	1.8442	1.11876	-0.00443032	-0.00810243
52.8848	1.81791	1.12148	-0.00449461	-0.00890035
53.207	1.827364	1.119804	-0.004493705	-0.00842062
53.5293	1.83055	1.12054	-0.00449644	-0.008248874
53.8516	1.82709	1.12027	-0.0044979	-0.0084976
54.1738	1.84088	1.12183	-0.00451622	-0.00848101
54.4961	1.84371	1.12453	-0.00444348	-0.00806224
54.8184	1.83227	1.1226	-0.00447888	-0.008302113
55.1406	1.83685	1.12466	-0.00448019	-0.00839322
55.4629	1.87393	1.12537	-0.00444044	-0.00813817
55.7852	2.0894	1.1228	-0.00442841	-0.00782283
56.1074	2.12069	1.12633	-0.00450551	-0.0080083
56.4297	2.28088	1.12561	-0.00445322	-0.00743323
56.752	2.39042	1.1303	-0.004492661	-0.00704019
57.0742	2.273257	1.12856	-0.00453438	-0.00757795
57.3965	2.27128	1.12997	-0.00452185	-0.00754601
57.71875	2.27154	1.13059	-0.00440729	-0.00707709
58.041	2.27211	1.13105	-0.00447426	-0.00726745
58.3633	2.28814	1.131	-0.00447439	-0.0073839
58.6855	2.32938	1.13241	-0.00448172	-0.00716073
59.0078	2.40725	1.133906	-0.00443205	-0.0068597
59.3301	2.39598	1.13403	-0.004533228	-0.00734652
59.6523	2.34072	1.13424	-0.00450402	-0.00715893
59.9746	2.36341	1.1339	-0.0044903	-0.00697416
60.2969	2.41597	1.13478	-0.00455702	-0.007156325
60.6191	2.47988	1.13631	-0.00452125	-0.00720778
60.9414	2.49642	1.13717	-0.00444364	-0.00652434
61.2637	2.53205	1.13741	-0.00446802	-0.00665914
61.5859	2.55711	1.13767	-0.00451502	-0.00683115
61.9082	2.5839	1.13889	-0.00447694	-0.00663654
62.2305	2.62724	1.13953	-0.00445399	-0.00653062
62.5527	2.66366	1.140731	-0.00452387	-0.00665924
62.875	2.68074	1.14182	-0.00452593	-0.0066124
63.1973	2.69381	1.14251	-0.00452712	-0.00637396
63.5195	2.678014	1.14306	-0.00449935	-0.00653964
63.8418	2.69367	1.14335	-0.0045289	-0.00669408
64.1641	2.730355	1.14434	-0.00444201	-0.00628574
64.4863	2.74922	1.14489	-0.00448325	-0.00633244
64.8086	2.80455	1.14594	-0.0045245	-0.00624598
65.1309	2.82999	1.1467	-0.00446633	-0.0060956
65.4531	2.84391	1.1467	-0.00446862	-0.00592705
65.7754	2.87691	1.14736	-0.004495	-0.00628007
66.0977	2.90402	1.14893	-0.00449328	-0.00633523
66.4199	2.93956	1.149387	-0.004477392	-0.005737477
66.7422	2.96097	1.15063	-0.00450113	-0.00590805
67.0645	2.96843	1.15153	-0.00451864	-0.006066971
67.3867	2.97507	1.15188	-0.00449185	-0.00575564
67.709	2.96487	1.15226	-0.00445776	-0.00566745
68.03125	3.01897	1.15273	-0.00449318	-0.00589522
68.3535	3.03524	1.15335	-0.00445993	-0.00551784
68.6758	3.11114	1.15429	-0.00444701	-0.00533103
68.998	3.13116	1.15532	-0.00454019	-0.00563721
69.3203	3.17178	1.15586	-0.00452761	-0.00540382
69.6426	3.19068	1.1573	-0.00450971	-0.00518392
69.9648	3.21521	1.1573	-0.00452327	-0.00530187
70.2871	3.23936	1.15721	-0.00456359	-0.00546332
70.6094	3.28283	1.159498	-0.00449908	-0.00517761
70.9316	3.30492	1.16007	-0.00445904	-0.00508961
71.2539	3.31574	1.16086	-0.00447776	-0.00508307
71.5762	3.29678	1.16107	-0.004481928	-0.00492259
71.8984	3.32013	1.16107	-0.00445911	-0.0047781
72.2207	3.362	1.16212	-0.0044955	-0.00509499
72.543	3.40189	1.16293	-0.00450625	-0.005162898
72.8652	3.45446	1.16401	-0.00448719	-0.00455836
73.1875	3.48507	1.16453	-0.0045128	-0.00472577
73.5098	3.50412	1.1654	-0.00452387	-0.00484317
73.832	3.53368	1.16566	-0.00444362	-0.00449254
74.1543	3.55898	1.1663	-0.00443962	-0.00447311
74.4766	3.60765	1.16725	-0.00448302	-0.00445855
74.7988	3.65235	1.16894	-0.00447453	-0.00429421
75.1211	3.66228	1.169345	-0.00443694	-0.00411243
75.4434	3.6563	1.16967	-0.00449627	-0.00455866
75.7656	3.6415	1.16966	-0.00448017	-0.00454053
76.0879	3.69612	1.17071	-0.00448498	-0.00423846
76.4102	3.72116	1.17145	-0.0045396	-0.00416783
76.7324	3.78831	1.17228	-0.00454556	-0.00422342
77.0547	3.823174	1.17323	-0.00446544	-0.00383467
77.377	3.84516	1.17372	-0.00445755	-0.00392963
77.6992	3.8856	1.175156	-0.00448985	-0.00379524
78.0215	3.91406	1.17521	-0.00443777	-0.00358918
78.34375	3.93962	1.17649	-0.00443572	-0.00350778
78.666	3.98181	1.177626	-0.00449034	-0.00398446
78.9883	3.98829	1.17854	-0.00448457	-0.00381106
79.3105	3.9849	1.1789	-0.0044504	-0.00366374
79.6328	3.964478	1.17908	-0.00450915	-0.00388114
79.9551	4.00434	1.17946	-0.004543242	-0.00361763
80.2773	4.04304	1.18032	-0.00443699	-0.00318827
80.5996	4.09497	1.18135	-0.00445824	-0.003380147
80.9219	4.15329	1.182	-0.00450228	-0.00320657
81.2441	4.18277	1.18258	-0.00444588	-0.00292675
81.5664	4.23167	1.18318	-0.00444737	-0.00293628
81.8887	4.27297	1.18388	-0.00459118	-0.003381823
82.2109	4.29724	1.184305	-0.00447269	-0.0031503
82.5332	4.34588	1.185917	-0.004527742	-0.00280538
82.8555	4.37798	1.18712	-0.00453996	-0.0030164
83.1777	4.38697	1.18775	-0.00451743	-0.003005449
83.5	4.37527	1.18812	-0.00448947	-0.00259371
83.8223	4.36196	1.18808	-0.00452658	-0.00284476
84.1445	4.39968	1.18832	-0.00450287	-0.002884811
84.4668	4.45814	1.18968	-0.00445869	-0.00236405
84.7891	4.5493	1.19109	-0.00443561	-0.002443271
85.1113	4.5581	1.191429	-0.00454808	-0.00278371
85.4336	4.581378	1.19221	-0.0044925	-0.00248786
85.7559	4.61061	1.19275	-0.00451218	-0.00220227
86.0781	4.6536	1.19332	-0.00454778	-0.00240903
86.4004	4.69064	1.19379	-0.00452929	-0.00226493
86.7227	4.74873	1.1951	-0.004452	-0.0016897
87.0449	4.78867	1.19666	-0.0045162	-0.00199082
87.3672	4.78541	1.19673	-0.00453394	-0.001937954
87.6895	4.75539	1.19674	-0.00444874	-0.00176981
88.0117	4.7711	1.19732	-0.00448502	-0.00190312
88.334	4.85976	1.19784	-0.00456335	-0.00218772
88.65625	4.91823	1.19994	-0.00451413	-0.00161695
88.9785	4.93465	1.19992	-0.00449964	-0.001687319
89.3008	4.9921	1.20087	-0.00456403	-0.00185207
89.623	4.995822	1.20163	-0.00451996	-0.00167015
89.9453	5.04169	1.20236	-0.00447605	-0.0013411
90.2676	5.08388	1.20359	-0.00450197	-0.00145485
90.5898	5.10072	1.203806	-0.00445384	-0.00142293
90.9121	5.12173	1.20447	-0.00445554	-0.00131803
91.2344	5.14161	1.2054	-0.00452964	-0.00147334
91.5566	5.132441	1.206	-0.00452798	-0.00153325
91.8789	5.1378	1.20579	-0.00448695	-0.00140376
92.2012	5.184391	1.20705	-0.00454644	-0.001293208
92.5234	5.22235	1.20739	-0.00457309	-0.00141715
92.8457	5.3321	1.20915	-0.0044593	-0.00121175
93.168	5.34115	1.20935	-0.00450109	-0.000869447
93.4902	5.41242	1.2099	-0.00453556	-0.001130324
93.8125	5.43556	1.21099	-0.00450199	-0.00104003
94.1348	5.48551	1.21186	-0.00447493	-0.000546178
94.457	5.53391	1.21276	-0.004524352	-0.00087547
94.7793	5.54647	1.21396	-0.00456897	-0.000937153
95.1016	5.54959	1.21408	-0.00449293	-0.000660433
95.4238	5.53093	1.21486	-0.00450583	-0.000836987
95.7461	5.5484	1.215	-0.004531634	-0.000961701
96.0684	5.61218	1.21539	-0.00446795	-0.000283899
96.3906	5.651227	1.2165	-0.00449078	-0.000341853
96.7129	5.72228	1.21778	-0.00451444	-0.000544526
97.0352	5.76854	1.21859	-0.00445201	-1.79746e-05
97.3574	5.79059	1.21877	-0.00444036	4.81783e-05
97.6797	5.82988	1.21991	-0.0045477	-0.000378008
98.002	5.86299	1.21997	-0.00454696	-0.000229059
98.3242	5.90878	1.22141	-0.00444253	0.000220426
98.6465	5.95062	1.22266	-0.00452004	-2.23019e-05
98.96875	5.98191	1.222824	-0.00452966	0.000204467
99.291	5.982482	1.22339	-0.00446017	0.0007026578
99.6133	5.95647	1.22337	-0.00447653	0.000499919
99.9355	6.013133	1.22428	-0.00450674	0.000359872
100.258	6.07531	1.22504	-0.00445281	0.000633615
100.58	6.17825	1.22658	-0.00445063	0.0008781096
100.902	6.22569	1.22722	-0.00452766	0.000454695
101.225	6.25693	1.22729	-0.00450999	0.000704322
101.547	6.29587	1.22794	-0.00450437	0.00110681
101.869	6.44036	1.22459	-0.00456933	0.000849249
102.191	6.63605	1.22913	-0.00453538	0.00156281
102.514	6.62798	1.234961	-0.00449369	0.0018787
102.836	6.58919	1.23097	-0.00455007	0.001603128
103.1582	6.55679	1.23346	-0.00451006	0.001626112
103.48	6.48519	1.23202	-0.00446888	0.00157027
103.803	6.43455	1.23387	-0.00445092	0.00130076
104.125	6.47598	1.23287	-0.00452297	0.00116821
104.447	6.50249	1.23395	-0.004478306	0.00140108
104.77	6.56978	1.23508	-0.00452112	0.00159525
105.0918	6.65611	1.236439	-0.00457211	0.00147466
105.414	6.67142	1.23698	-0.00452674	0.00178099
105.736	6.742321	1.23752	-0.00447284	0.002046251
106.059	6.78982	1.2393	-0.00451932	0.00186206
106.381	6.8453	1.239377	-0.00444912	0.002317009
106.703	6.88628	1.24063	-0.004450059	0.00240347
107.025	6.90497	1.2417	-0.00453203	0.00200177
107.348	6.91886	1.24184	-0.00451912	0.0020907
107.67	6.92296	1.24208	-0.00446409	0.00226543
107.992	6.96846	1.242865	-0.00456127	0.00207152
108.314	6.99386	1.24296	-0.004535398	0.00228682
108.637	7.0557	1.24418	-0.0044972	0.00281423
108.959	7.12131	1.24578	-0.00451782	0.002926863
109.281	7.14925	1.24539	-0.00451182	0.00275519
109.604	7.20764	1.24579	-0.00447543	0.00301495
109.926	7.24752	1.24791	-0.00445029	0.00301974
110.248	7.28671	1.24828	-0.00456369	0.00290051
110.57	7.3459	1.24959	-0.00447426	0.00310712
110.893	7.37228	1.25001	-0.00449812	0.00321576
111.215	7.38742	1.25068	-0.00452999	0.00324716
111.537	7.36133	1.25087	-0.00451955	0.003330023
111.859	7.38298	1.25107	-0.00450167	0.00375032
112.182	7.45731	1.25211	-0.00451933	0.0034625
112.504	7.47503	1.25197	-0.00449096	0.00337713
112.826	7.55625	1.25326	-0.004485229	0.00397434
113.148	7.59686	1.25416	-0.00451158	0.003888472
113.4707	7.66398	1.25451	-0.00457716	0.0034969
113.793	7.70405	1.25543	-0.00449278	0.00410139
114.115	7.73324	1.25568	-0.00452446	0.00407849
114.4375	7.78343	1.25675	-0.00458663	0.00385843
114.76	7.83075	1.25861	-0.00451458	0.0043369
115.082	7.86044	1.25954	-0.00445371	0.00465469
115.4043	7.85649	1.25907	-0.00454766	0.004328
115.727	7.8314	1.25876	-0.00451436	0.00441319
116.049	7.89546	1.26012	-0.00449896	0.00457312
116.371	8.18155	1.2612	-0.0045062	0.00470984
116.693	8.022666	1.26222	-0.00457965	0.00472762
117.016	8.043788	1.26273	-0.00450617	0.004701341
117.338	8.08729	1.26371	-0.00450723	0.00471815
117.66	8.12743	1.26394	-0.00453358	0.00478538
117.982	8.21472	1.2653	-0.00452721	0.0049737
118.305	8.28541	1.26537	-0.00445535	0.00553268
118.627	8.32274	1.26683	-0.00448859	0.00524301
118.949	8.50141	1.268065	-0.00453978	0.00561187
119.271	8.70151	1.26734	-0.0044354	0.00604908
119.594	8.73932	1.26975	-0.00448801	0.00651121
119.916	8.66745	1.27161	-0.004564614	0.00597474
120.238	8.68041	1.27227	-0.004467	0.00629366
120.561	8.62004	1.27104	-0.0045176	0.00618412
120.883	8.619669	1.27319	-0.00452861	0.00597511
121.205	8.62678	1.27247	-0.00448407	0.00624857
121.527	8.67208	1.27359	-0.00441938	0.00641106
121.85	9.02884	1.276643	-0.00450046	0.00644344
122.172	8.87168	1.2766	-0.00446838	0.006801751
122.494	8.79771	1.27428	-0.004396725	0.00673455
122.816	8.84629	1.27713	-0.00451882	0.00643462
123.139	8.85343	1.277312	-0.00455199	0.00629979
123.461	8.8307	1.27813	-0.00452794	0.00653969
123.7832	8.8425	1.2774	-0.004479642	0.00646675
124.105	8.92318	1.2776	-0.00452882	0.00628243
124.428	8.96226	1.27953	-0.00444808	0.00691268
124.75	9.07947	1.28101	-0.00448335	0.00730315
125.072	9.12064	1.28087	-0.00447493	0.00701891
125.395	9.15824	1.28189	-0.004474347	0.00711353
125.7168	9.35653	1.2829	-0.00446	0.00764051
126.039	9.65737	1.28321	-0.00453004	0.00826044
126.361	9.61868	1.28446	-0.00452171	0.00812017
126.684	9.59412	1.286091	-0.00449075	0.00836348
127.006	9.57933	1.28615	-0.00453466	0.00828682
127.328	9.5356	1.28731	-0.00454667	0.007818
127.65	9.50386	1.28644	-0.00449208	0.00813815
127.973	9.5233	1.28761	-0.00446614	0.00821086
128.295	9.54548	1.28779	-0.004476184	0.00793611
128.617	9.55189	1.28915	-0.00449856	0.00805049
128.939	9.59526	1.28944	-0.00444583	0.0085211
129.262	9.77092	1.29165	-0.00444967	0.00853034
129.584	9.73386	1.29125	-0.00452276	0.00841609
129.906	9.72433	1.29191	-0.00446613	0.00868968
130.229	9.74292	1.29277	-0.00452069	0.00861221
130.551	9.84874	1.29411	-0.00456381	0.00839518
130.873	9.90698	1.29489	-0.00441554	0.00904728
131.195	9.91714	1.29558	-0.00443124	0.00914691
131.518	9.92162	1.29597	-0.00449221	0.00887365
131.84	9.91499	1.29572	-0.00445306	0.00894643
132.162	9.99577	1.29612	-0.00444392	0.009402019
132.484	10.0324	1.29706	-0.00454097	0.00915836
132.807	10.1468	1.29834	-0.00451773	0.00935059
133.129	10.17146	1.29901	-0.00451356	0.00959763
133.451	10.2145	1.2996	-0.00448502	0.00949757
133.773	10.2567	1.3003	-0.00456874	0.00960875
134.0957	10.3003	1.30119	-0.004463458	0.0100019
134.418	10.3709	1.30214	-0.00447703	0.0099644
134.74	10.4394	1.30362	-0.00454371	0.0100747
135.0625	10.471	1.30428	-0.00444539	0.0102279
135.385	10.4667	1.30529	-0.0044415	0.0103746
135.707	10.4421	1.30419	-0.00455848	0.009936085
136.0293	10.5036	1.30548	-0.00455643	0.0100647
136.352	10.55917	1.30617	-0.00451099	0.0105283
136.674	10.6706	1.30721	-0.00448873	0.0103284
136.996	10.7153	1.30769	-0.00450723	0.0105544
137.318	10.7471	1.30867	-0.004426762	0.0109919
137.641	10.8137	1.309456	-0.00445756	0.0111269
137.963	10.8535	1.310066	-0.00450419	0.0110098
138.285	10.9124	1.31121	-0.00443586	0.0112556
138.607	10.9834	1.31229	-0.00444159	0.0115502
138.93	11.0051	1.31296	-0.00448924	0.0110575
139.252	11.0168	1.31354	-0.00444574	0.01130672
139.574	11.0029	1.31418	-0.0044844	0.011725
139.896	11.0346	1.31455	-0.00454223	0.01149
140.219	11.1133	1.31533	-0.00454781	0.0115144
140.541	11.168	1.315717	-0.00443951	0.0119536
140.863	11.232	1.316906	-0.00452912	0.0120214
141.186	11.2738	1.317471	-0.00447326	0.0119791
141.508	11.313	1.31814	-0.00445048	0.0124903
141.83	11.347	1.31907	-0.00446737	0.0124163
142.152	11.5926	1.318056	-0.00452046	0.0123232
142.475	11.838	1.32134	-0.00447206	0.0135093
142.797	11.6445	1.320962	-0.004498098	0.0132434
143.119	11.6002	1.32316	-0.00451804	0.0127028
143.441	11.53923	1.32303	-0.004501781	0.012832
143.764	11.523	1.32221	-0.00445562	0.0131934
144.086	11.5899	1.32351	-0.00453655	0.01289885
144.4082	11.6539	1.32449	-0.00448116	0.013183
144.73	11.725	1.32527	-0.00445733	0.0133874
145.053	11.8031	1.32662	-0.00451083	0.0135623
145.375	11.8165	1.32677	-0.004526061	0.0133029
145.697	11.856	1.3277	-0.00450322	0.0135527
146.02	11.90935	1.32825	-0.00449755	0.0135395
146.3418	11.9632	1.32946	-0.00452097	0.0136462
146.664	12.0476	1.33052	-0.0044636	0.0138063
146.986	12.0907	1.331705	-0.00448834	0.0143498
147.309	12.10228	1.33132	-0.00449312	0.0140827
147.631	12.0623	1.33098	-0.0044893	0.01416441
147.953	12.1061	1.33227	-0.00446324	0.014314
148.275	12.1888	1.33304	-0.00450029	0.01436045
148.598	12.2688	1.33456	-0.00452504	0.0142321
148.92	12.3115	1.33488	-0.00446671	0.0144814
149.242	12.3511	1.33564	-0.00450173	0.0147267
149.564	12.4065	1.336367	-0.00451424	0.0145187
149.887	12.4588	1.33743	-0.00444617	0.0151671
150.209	12.5058	1.33834	-0.00446434	0.0152533
150.531	12.6125	1.33859	-0.00448658	0.0152469
150.854	12.6647	1.34013	-0.0045027	0.0154077
151.176	12.6846	1.34054	-0.00443267	0.0158964
151.498	12.6785	1.34084	-0.00446987	0.0152196
151.82	12.6762	1.34107	-0.00451098	0.0151724
152.143	12.79039	1.34209	-0.0044938	0.0157296
152.465	12.7896	1.34261	-0.00453918	0.0155431
152.787	12.91778	1.34439	-0.0045229	0.0156876
153.109	12.9506	1.34408	-0.00449814	0.01612911
153.432	13.0001	1.34499	-0.00447233	0.0164648
153.754	13.0405	1.34604	-0.00452636	0.016206
154.076	13.0778	1.34641	-0.00447175	0.0163546
154.398	13.11315	1.34756	-0.00443149	0.0168366
154.7207	13.3209	1.348227	-0.00451555	0.0167475
155.043	13.3795	1.34533	-0.00453025	0.0170587
155.365	13.3592	1.34958	-0.004523553	0.0172601
155.6875	13.3246	1.34826	-0.00453718	0.0171563
156.01	13.3001	1.35104	-0.00454608	0.0166867
156.332	13.3232	1.35117	-0.00444521	0.0173651
156.6543	13.3459	1.35162	-0.00447317	0.0173876
156.977	13.4244	1.35265	-0.00452126	0.0171313
157.299	13.4797	1.35295	-0.0045017	0.0176059
157.621	13.511	1.35381	-0.00446411	0.0177289
157.943	13.6075	1.35494	-0.00456443	0.0176156
158.266	13.5875	1.35481	-0.00453149	0.0176291
158.588	13.8665	1.36267	-0.00448626	0.0181716
158.91	13.9563	1.3608	-0.0045132	0.0185862
159.232	14.01416	1.35807	-0.00453558	0.0184181
159.555	14.1463	1.35789	-0.00447309	0.0191668
159.877	14.1959	1.358875	-0.00449241	0.019473
160.199	14.2122	1.3595	-0.00454184	0.0192371
160.521	14.2667	1.36234	-0.00450226	0.0193744
160.844	14.2364	1.36209	-0.00445529	0.019521
161.166	14.2292	1.364512	-0.00451475	0.01914514
161.488	14.2268	1.36448	-0.004518779	0.0191215
161.811	14.2177	1.36279	-0.00452267	0.019414
162.133	14.2914	1.36621	-0.00450463	0.0195357
162.455	14.2584	1.36617	-0.00459932	0.019381
162.777	14.3632	1.36567	-0.00447939	0.0197491
163.1	14.3884	1.36824	-0.00448125	0.020084
163.422	14.4607	1.36497	-0.004548321	0.01986553
163.744	14.3176	1.36807	-0.00449043	0.0200067
164.066	14.4343	1.36718	-0.00446488	0.0201728
164.389	14.4487	1.36901	-0.00453504	0.019734
164.711	14.5342	1.37353	-0.00453446	0.0201085
165.0332	14.5537	1.37895	-0.00449183	0.02033006
165.355	14.5479	1.370356	-0.00451579	0.0201609
165.678	14.55963	1.37286	-0.00454052	0.0200237
166	14.5385	1.37037	-0.0044502	0.0207119
166.322	14.517	1.37927	-0.004506289	0.0206682
166.645	14.5165	1.38114	-0.00449035	0.0201444
166.9668	14.5116	1.37078	-0.0044576	0.0203646
167.289	14.5026	1.37843	-0.00446122	0.0204945
167.611	14.5967	1.3767	-0.00451956	0.0203106
167.934	14.6309	1.37691	-0.00455984	0.0204453
168.256	14.5582	1.37642	-0.00451863	0.020612
168.578	14.6451	1.37899	-0.00459802	0.0204127
168.9	14.6362	1.37905	-0.00456177	0.0203376
169.223	14.6432	1.38247	-0.004502167	0.020776
169.545	14.6335	1.38056	-0.00451423	0.0206062
169.867	14.6249	1.38278	-0.00451769	0.02052588
170.189	14.6305	1.3825	-0.0045016	0.020736
170.512	14.6479	1.38543	-0.00449739	0.021011
170.834	14.65757	1.38464	-0.00463357	0.020587
171.156	14.6659	1.38522	-0.00456114	0.02081
171.479	14.7349	1.38552	-0.00454731	0.0208863
171.801	14.8157	1.38649	-0.004594821	0.02094836
172.123	14.7825	1.38531	-0.00453588	0.0209561
172.445	14.8362	1.38756	-0.00451985	0.0214008
172.768	14.8768	1.38854	-0.00454733	0.0210855
173.09	14.9	1.38888	-0.00451985	0.0214377
173.412	14.93	1.39071	-0.00449918	0.0216289
173.734	14.9422	1.39055	-0.00453796	0.0214734
174.057	14.9602	1.39131	-0.00459714	0.0212203
174.379	15.0248	1.39254	-0.00455397	0.021789
174.701	15.1119	1.39342	-0.00455863	0.0220738
175.023	15.1776	1.39473	-0.004568805	0.0218887
175.3457	15.1886	1.39473	-0.00453092	0.0221675
175.668	15.2607	1.395211	-0.00446627	0.0226019
175.99	15.3115	1.39524	-0.00456738	0.0223192
176.3125	15.3065	1.3964	-0.00451778	0.0224386
176.635	15.3868	1.39724	-0.004458495	0.0229761
176.957	15.4248	1.39729	-0.00455598	0.02289423
177.2793	15.489	1.39931	-0.00455846	0.02287834
177.602	15.5302	1.39815	-0.004528034	0.0234177
177.924	15.6195	1.39915	-0.00456261	0.0232143
178.246	15.7496	1.40078	-0.004578969	0.02366362
178.568	15.7649	1.40122	-0.00450293	0.0241173
178.891	15.7847	1.40321	-0.00451617	0.0239521
179.213	15.8272	1.40453	-0.00454693	0.0241029
179.535	15.9958	1.40327	-0.00452452	0.0246692
179.857	15.98798	1.40308	-0.00452544	0.0247212
180.18	15.9113	1.40571	-0.00457107	0.0242635
180.502	16.10965	1.40641	-0.0045824	0.0247571
180.824	16.0617	1.40721	-0.00455715	0.0248811
181.146	16.06959	1.40767	-0.0045525	0.0249503
181.469	16.1115	1.40415	-0.00459937	0.0249313
181.791	16.1687	1.410162	-0.00448242	0.0257135
182.113	16.1877	1.40987	-0.00452324	0.0255144
182.436	16.2431	1.40992	-0.00456553	0.0257113
182.758	16.3924	1.41118	-0.00447346	0.0261911
183.08	16.43685	1.41159	-0.00444161	0.0264748
183.402	16.5026	1.41351	-0.00461455	0.0260564
183.725	16.4925	1.4131	-0.00456053	0.0265477
184.047	16.55633	1.41597	-0.00455902	0.0266588
184.369	16.5608	1.41526	-0.00455079	0.0267172
184.691	16.5902	1.41572	-0.00456836	0.0268165
185.014	16.7039	1.40513	-0.0045617	0.0272019
185.336	16.8006	1.41836	-0.00458927	0.0277889
185.6582	16.7819	1.41885	-0.004576839	0.0277781
185.98	16.7782	1.41855	-0.0045346	0.0280107
186.303	16.7915	1.419228	-0.00454463	0.0280825
186.625	16.8247	1.42074	-0.00459585	0.0278494
186.947	16.8621	1.42141	-0.00455639	0.0281379
187.27	16.9593	1.42186	-0.00455861	0.028402
187.5918	17.13204	1.42158	-0.00461651	0.0288566
187.914	17.171	1.422236	-0.00451397	0.0294853
188.236	17.1851	1.42296	-0.00451827	0.0298795
188.559	17.2775	1.42448	-0.00458984	0.0298994
188.881	17.29814	1.42522	-0.00456041	0.0306268
189.203	17.36492	1.42488	-0.00451136	0.0310559
189.525	17.3727	1.4256	-0.00457151	0.0309465
189.848	17.4494	1.42486	-0.004597608	0.0313573
190.17	17.4317	1.42723	-0.0045758	0.0318724
190.492	17.4087	1.42975	-0.004589	0.031623
190.814	17.4085	1.43017	-0.00464645	0.0319044
191.137	17.4373	1.43022	-0.00449044	0.0323289
191.459	17.4538	1.43183	-0.00459209	0.0323796
191.781	17.5442	1.43115	-0.00456754	0.0326734
192.104	17.5491	1.43246	-0.00451997	0.0332023
192.426	17.623	1.43297	-0.00452877	0.0333866
192.748	17.5745	1.43181	-0.00458187	0.0330382
193.07	17.5997	1.43424	-0.00452843	0.0335881
193.393	17.6056	1.435568	-0.0045568	0.0339027
193.715	17.6078	1.4361	-0.00463944	0.0340194
194.037	17.6101	1.43689	-0.00454836	0.0342238
194.359	17.6405	1.43717	-0.004526013	0.0347272
194.682	17.6714	1.43887	-0.00451531	0.0348163
195.004	17.6892	1.4397	-0.00451686	0.0352295
195.326	17.7078	1.43928	-0.00450299	0.0356829
195.648	17.7559	1.4396	-0.00456295	0.03560302
195.9707	17.7583	1.440482	-0.004575491	0.035592
196.293	17.7551	1.44014	-0.0045459	0.0361199
196.615	17.869	1.44228	-0.00455292	0.036578
196.9375	17.8393	1.44272	-0.004607074	0.0367239
197.26	17.8312	1.44338	-0.00448338	0.037486
197.582	17.8563	1.44456	-0.00450217	0.0379411
197.9043	17.8532	1.44484	-0.00455933	0.0381497
198.227	17.9127	1.44561	-0.00449245	0.0386163
198.549	17.9816	1.44684	-0.00448832	0.0393212
198.871	18.006	1.44841	-0.00458724	0.0394486
199.193	18.0192	1.44889	-0.00460221	0.0399382
199.516	18.0448	1.44886	-0.00456522	0.0407165
199.838	18.04612	1.44867	-0.00456841	0.0410907
200.16	18.0592	1.44968	-0.00464366	0.0416611
200.482	18.115	1.45049	-0.00450446	0.0424116
200.805	18.1495	1.45129	-0.004591221	0.0430203
201.127	18.1762	1.45247	-0.00456286	0.04362873
201.449	18.1424	1.4536	-0.00450282	0.0444656
201.771	18.1502	1.45417	-0.00452485	0.0449166
202.094	18.1922	1.45468	-0.00458037	0.04492994
202.416	18.2029	1.456067	-0.00456336	0.0458722
202.738	18.2324	1.45622	-0.00454426	0.0464257
203.061	18.25396	1.45759	-0.00458065	0.0468429
203.383	18.2468	1.45743	-0.00453881	0.047426
203.705	18.3107	1.45894	-0.00452323	0.0484949
204.027	18.4037	1.45787	-0.00456279	0.0488154
204.35	18.3553	1.45878	-0.00453168	0.0497979
204.672	18.3616	1.460178	-0.00448131	0.05059889
204.994	18.3734	1.46174	-0.0045939	0.0508081
205.316	18.3842	1.46254	-0.00456111	0.0514305
205.639	18.3834	1.46327	-0.00456366	0.0521948
205.961	18.4021	1.46333	-0.00456239	0.0522663
206.2832	18.4129	1.46543	-0.00461258	0.0528056
206.605	18.44154	1.46566	-0.00447979	0.053647
206.928	18.4436	1.4665	-0.00455144	0.0540115
207.25	18.4501	1.46737	-0.00452417	0.0542337
207.572	18.4803	1.4668	-0.00448781	0.055049
207.895	18.4805	1.46757	-0.00449559	0.055313
208.2168	18.48263	1.46772	-0.00457969	0.0555005
208.539	18.5079	1.46866	-0.00450094	0.0561397
208.861	18.5295	1.4702	-0.00455055	0.0567267
209.184	18.5413	1.47105	-0.00465115	0.0568349
209.506	18.5434	1.46972	-0.00456593	0.0576143
209.828	18.5763	1.47245	-0.00452194	0.0581382
210.15	18.6281	1.4727	-0.00455802	0.0584442
210.473	18.6467	1.47358	-0.00453668	0.05955185
210.795	18.6542	1.47486	-0.00447943	0.0602502
211.117	18.6626	1.47506	-0.00460117	0.0605061
211.439	18.6827	1.475454	-0.004591635	0.061117
211.762	18.712	1.47623	-0.00452604	0.0619544
212.084	18.6824	1.47613	-0.00457774	0.062367
212.406	18.7043	1.4779	-0.004557095	0.0626107
212.729	18.7113	1.47821	-0.00447503	0.0636582
213.051	18.7525	1.47851	-0.00456308	0.0640857
213.373	18.7559	1.479874	-0.00455239	0.0645651
213.695	18.8435	1.4807	-0.00447055	0.0657967
214.018	18.8387	1.48201	-0.00452524	0.0667165
214.34	18.8189	1.48329	-0.00459338	0.0671652
214.662	18.8963	1.48525	-0.00453811	0.06807591
214.984	18.8969	1.48377	-0.00454362	0.0690307
215.307	18.8787	1.48334	-0.00458887	0.0697159
215.629	18.8515	1.48504	-0.00455228	0.070428
215.951	18.8818	1.48593	-0.00452752	0.0710925
216.273	18.8428	1.48619	-0.00459669	0.0711059
216.5957	18.86268	1.48719	-0.00454853	0.0717797
216.918	18.87154	1.48775	-0.00450811	0.0722247
217.24	18.882	1.48893	-0.00453457	0.072325
217.5625	18.8883	1.48891	-0.00458335	0.0724159
217.885	18.8961	1.48994	-0.00450139	0.0733418
218.207	18.9399	1.4905	-0.00454152	0.0735017
218.5293	19.0355	1.49256	-0.00461977	0.0742973
218.852	19.0405	1.49383	-0.004560166	0.0751634
219.174	19.0126	1.49335	-0.00451201	0.07615187
219.496	19.0407	1.49369	-0.00456175	0.07647109
219.818	19.054	1.49437	-0.00453419	0.0770088
220.141	19.025	1.49434	-0.00450968	0.0777706
220.463	19.1255	1.49626	-0.004547759	0.0779454
220.785	19.1412	1.49654	-0.0045494	0.0788717
221.107	19.1355	1.49769	-0.00452197	0.0800145
221.43	19.1287	1.49846	-0.00455077	0.0807121
221.752	19.1147	1.49821	-0.00457576	0.0812735
222.074	19.1362	1.50017	-0.00448422	0.0823115
222.396	19.162	1.5011	-0.00451727	0.0827794
222.719	19.1555	1.50171	-0.00461807	0.083254
223.041	19.1579	1.5016	-0.004531574	0.0841333
223.363	19.2226	1.502571	-0.00453064	0.0844314
223.686	19.1246	1.50315	-0.00458756	0.084859
224.008	19.2145	1.50483	-0.00453575	0.0857796
224.33	19.16432	1.50358	-0.00452491	0.0861207
224.652	19.24826	1.50537	-0.00455576	0.0864871
224.975	19.2577	1.50638	-0.00459063	0.0871422
225.297	19.25952	1.507	-0.00454748	0.0881783
225.619	19.2542	1.50747	-0.00460267	0.08847513
225.941	19.26873	1.50843	-0.00456728	0.0890398
226.264	19.3076	1.50952	-0.00449597	0.09001188
226.586	19.3367	1.51065	-0.004513036	0.0904308
226.9082	19.3381	1.51105	-0.00458675	0.0906752
227.23	19.33807	1.511824	-0.0045836	0.0918528
227.553	19.3949	1.51234	-0.00462152	0.0924538
227.875	19.4316	1.51157	-0.00459417	0.0932068
228.197	19.3949	1.51254	-0.00452998	0.0943002
228.52	19.4429	1.51433	-0.00454105	0.0951285
228.8418	19.4469	1.51467	-0.0045693	0.096154
229.164	19.501	1.5171	-0.0045114	0.0967643
229.486	19.4703	1.51648	-0.004526	0.0978456
229.809	19.4665	1.51692	-0.00458877	0.0984485
230.131	19.4778	1.51841	-0.00460805	0.0989614
230.453	19.4616	1.51976	-0.00453128	0.100144
230.775	19.4878	1.5201	-0.00457647	0.100648
231.098	19.5108	1.52014	-0.004657465	0.101038
231.42	19.54	1.52122	-0.00456518	0.102088
231.742	19.5707	1.52186	-0.00451613	0.102598
232.064	19.5333	1.52005	-0.00458298	0.103375
232.387	19.5538	1.52204	-0.00454618	0.104133
232.709	19.5731	1.522251	-0.00453017	0.104912
233.031	19.5967	1.52419	-0.00461336	0.105323
233.354	19.5872	1.52453	-0.00457936	0.106097
233.676	19.5774	1.52528	-0.00459718	0.107217
233.998	19.6053	1.52744	-0.00463575	0.107274
234.32	19.6206	1.52752	-0.00462107	0.108223
234.643	19.6288	1.52934	-0.00451705	0.109177
234.965	19.6365	1.52842	-0.0045623	0.109258
235.287	19.6297	1.52885	-0.00461277	0.110069
235.609	19.6803	1.52958	-0.00456529	0.110916
235.932	19.6639	1.52979	-0.004584542	0.111542
236.254	19.699	1.53207	-0.00465466	0.111711
236.576	19.72637	1.53294	-0.00457138	0.112869
236.898	20.001	1.53987	-0.00459198	0.113848
237.2207	19.8276	1.53308	-0.00464003	0.115095
237.543	19.8495	1.533953	-0.00463123	0.117077
237.865	19.8668	1.53484	-0.0045367	0.11895
238.1875	19.9549	1.53668	-0.00459602	0.120208
238.51	20.1102	1.53601	-0.00457058	0.122968
238.832	20.1918	1.53785	-0.00453947	0.128893
239.1543	19.93578	1.5379	-0.00456491	0.133656
239.477	19.8055	1.53732	-0.00461517	0.133913
239.799	19.8089	1.53837	-0.0045872	0.134596
240.121	19.6894	1.539853	-0.00457002	0.134489
240.443	19.6934	1.54089	-0.00459552	0.134292
240.766	20.3357	1.54341	-0.00454286	0.135119
241.088	20.327	1.55339	-0.00452271	0.1433329
241.41	20.1843	1.55698	-0.004597499	0.147003
241.732	20.4091	1.56115	-0.0045672	0.149477
242.055	20.5019	1.57004	-0.00454238	0.156758
242.377	20.5539	1.57435	-0.0046358	0.163027
242.699	20.572	1.57754	-0.00466072	0.169453
243.021	20.61714	1.58472	-0.00459887	0.1754688
243.344	20.50403	1.59178	-0.00459718	0.180274
243.666	20.6434	1.599683	-0.00465614	0.182512
243.988	20.611	1.60341	-0.00455751	0.186712
244.311	20.5631	1.60886	-0.00456018	0.189584
244.633	20.6772	1.61639	-0.00459671	0.190889
244.955	20.7845	1.62	-0.00455674	0.193761
245.277	20.7752	1.62666	-0.00456938	0.199718
245.6	20.8287	1.63259	-0.00454919	0.205208
245.922	20.89208	1.63904	-0.00461745	0.210844
246.244	21.064	1.64437	-0.00454876	0.219968
246.566	20.9321	1.65074	-0.00459194	0.232729
246.889	20.868	1.65523	-0.0046686	0.2371
247.211	20.8944	1.66146	-0.00462605	0.24045
247.5332	21.0685	1.66709	-0.00457672	0.243659
247.855	21.0103	1.67176	-0.00460829	0.249379
248.178	21.0741	1.67794	-0.00458458	0.2547521
248.5	21.0484	1.68479	-0.00455628	0.260745
248.822	21.113	1.69057	-0.00462445	0.266241
249.145	21.1225	1.6955	-0.00461718	0.273371
249.4668	21.0813	1.70177	-0.004564221	0.28067
249.789	21.1458	1.70814	-0.0046185	0.286071
250.111	21.1042	1.71613	-0.00464256	0.295604
250.434	21.1546	1.72439	-0.00456117	0.304243
250.756	21.032	1.72534	-0.00455272	0.308619
251.078	21.3018	1.72964	-0.004624587	0.312352
251.4	21.1778	1.73641	-0.00459568	0.322447
251.723	21.1408	1.74415	-0.00456646	0.3293142
252.045	21.1215	1.748	-0.00462015	0.3355895
252.367	21.3718	1.74995	-0.00464942	0.341752
252.689	21.1283	1.75896	-0.00460717	0.3523992
253.012	21.2268	1.76171	-0.00462362	0.357102
253.334	21.4456	1.78314	-0.00460228	0.364323
253.656	21.11751	1.77836	-0.00456701	0.378119
253.979	21.0261	1.78638	-0.004612979	0.38272
254.301	21.37608	1.78604	-0.00464635	0.387347
254.623	21.1045	1.79711	-0.0045897	0.400628
254.945	21.0106	1.79765	-0.00456002	0.405003
255.268	20.9709	1.80547	-0.00461503	0.406459
255.59	21.0039	1.811173	-0.00463645	0.408612
255.912	21.0797	1.81791	-0.00459789	0.410979
256.234	20.9492	1.82336	-0.00461792	0.41933
256.557	20.9154	1.83253	-0.00462797	0.427751
256.879	20.9796	1.82676	-0.00458998	0.433959
257.201	21.2465	1.84683	-0.00460735	0.438755
257.523	21.07132	1.847671	-0.00463475	0.444243
257.8457	21.1067	1.85385	-0.00458188	0.450289
258.168	21.1419	1.85959	-0.00455027	0.456307
258.49	21.0772	1.86544	-0.0046522	0.462492
258.8125	21.0878	1.86993	-0.00462908	0.468164
259.135	21.1057	1.87563	-0.00461141	0.4746629
259.457	21.0049	1.88158	-0.004637721	0.483219
259.7793	21.0575	1.88825	-0.00465671	0.489063
260.102	20.942	1.89435	-0.00454654	0.49929
260.424	21.0008	1.89979	-0.00464281	0.503938
260.746	20.99544	1.90504	-0.0046281	0.50996
261.068	20.8007	1.90983	-0.004515382	0.519014
261.391	20.9941	1.91639	-0.004540313	0.523789
261.713	20.9023	1.92264	-0.00461554	0.532711
262.035	21.0532	1.92873	-0.00443082	0.54381
262.357	20.9573	1.93374	-0.00425983	0.568734
262.68	20.8774	1.94111	-0.00426332	0.580938
263.002	20.8152	1.94561	-0.00426687	0.587673
263.324	20.8745	1.95062	-0.00418468	0.593894
263.646	20.6456	1.957459	-0.00420011	0.60004
263.969	20.8103	1.96288	-0.00425441	0.604323
264.291	20.7483	1.9684	-0.00419847	0.6103344
264.613	20.7433	1.9726	-0.00418565	0.6153096
264.936	20.6077	1.9775	-0.00425332	0.6190455
265.258	20.7102	1.98722	-0.00420835	0.621897
265.58	20.6973	1.99146	-0.00418837	0.625199
265.902	20.8149	1.99883	-0.0042718	0.629821
266.225	20.7252	2.00402	-0.00420875	0.639175
266.547	20.6584	2.01017	-0.00419087	0.647299
266.869	20.5755	2.01368	-0.00423444	0.654038
267.191	20.5701	2.02005	-0.00420353	0.658082
267.514	20.576	2.02712	-0.00419097	0.662499
267.836	20.6344	2.03391	-0.00425176	0.668203
268.1582	20.5754	2.03836	-0.00425489	0.676796
268.48	20.5431	2.04363	-0.00422688	0.683175
268.803	20.5726	2.05077	-0.00427805	0.690007
269.125	20.5121	2.05585	-0.00428208	0.696847
269.447	20.6929	2.05917	-0.00417547	0.705958
269.77	20.407	2.06605	-0.00419324	0.725615
270.0918	20.2578	2.07297	-0.00421314	0.731234
270.414	20.306	2.07287	-0.0042023	0.733827
270.736	20.525	2.08427	-0.00411405	0.737905
271.059	20.4302	2.08782	-0.00425893	0.746704
271.381	20.2505	2.09843	-0.00426653	0.757273
271.703	20.16083	2.1023	-0.00419508	0.761251
272.025	20.1523	2.10862	-0.00422363	0.763175
272.348	20.2538	2.11348	-0.004222617	0.7658937
272.67	20.2745	2.11967	-0.00415404	0.772742
272.992	20.357	2.12791	-0.004154	0.778662
273.314	20.1661	2.13023	-0.00422099	0.78764
273.637	20.1847	2.13773	-0.00416866	0.793074
273.959	20.2471	2.14534	-0.00418213	0.7989136
274.281	20.1526	2.14912	-0.00424333	0.8052007
274.604	20.1259	2.15453	-0.00424079	0.811147
274.926	20.0613	2.159785	-0.00418671	0.818848
275.248	20.0752	2.165287	-0.00426678	0.824464
275.57	20.0734	2.17137	-0.00423222	0.830588
275.893	20.0564	2.17782	-0.00417594	0.837942
276.215	19.9411	2.183356	-0.00421193	0.845894
276.537	19.9952	2.19002	-0.00416494	0.852005
276.859	19.94692	2.19386	-0.0041717	0.859495
277.182	20.0455	2.20182	-0.00421315	0.866674
277.504	19.924	2.20795	-0.00421439	0.873633
277.826	19.8577	2.213443	-0.00419852	0.881041
278.148	19.7331	2.21507	-0.00417196	0.890801
278.4707	19.8031	2.22401	-0.00425348	0.894585
278.793	19.7957	2.22869	-0.0042082	0.900302
279.115	19.6605	2.23648	-0.004209233	0.910492
279.4375	19.6175	2.24064	-0.00420015	0.919149
279.76	19.9081	2.24799	-0.00419009	0.92315
280.082	19.3716	2.25456	-0.00418312	0.94567
280.4043	19.5162	2.26173	-0.00423921	0.949955
280.727	19.3617	2.26703	-0.00425448	0.959236
281.049	19.047	2.27183	-0.00416051	0.962317
281.371	19.18874	2.276026	-0.00426131	0.970585
281.693	19.5826	2.28947	-0.00427716	0.977479
282.016	19.7086	2.28543	-0.00413475	0.984382
282.338	18.8222	2.28898	-0.00420904	0.9922
282.66	18.6001	2.29935	-0.00420751	0.998108
282.982	19.2047	2.30857	-0.00416195	1.00224
283.305	19.3274	2.31529	-0.00417041	1.00444
283.627	19.2	2.31597	-0.00423595	1.00671
283.949	19.1095	2.31618	-0.00420574	1.0183
284.271	19.0207	2.32218	-0.00420916	1.02601
284.594	19.1443	2.31954	-0.00424015	1.02915
284.916	18.9638	2.34103	-0.00421575	1.04683
285.238	18.9653	2.34362	-0.00415447	1.04874
285.561	19.0237	2.35105	-0.00421355	1.05034
285.883	19.2215	2.35971	-0.00418814	1.05448
286.205	19.1384	2.36508	-0.00419259	1.062717
286.527	19.0795	2.369457	-0.00417681	1.06869
286.85	19.074	2.37427	-0.00425324	1.07258
287.172	19.0854	2.38057	-0.00421428	1.07885
287.494	19.02643	2.38546	-0.00424769	1.086217
287.816	18.7537	2.39725	-0.004274847	1.10953
288.139	18.5938	2.39212	-0.00415051	1.11716
288.461	18.5361	2.40652	-0.0041614	1.11818
288.7832	18.6499	2.40764	-0.00422475	1.12286
289.105	18.5994	2.40839	-0.00414901	1.12812
289.428	18.8638	2.41941	-0.00412097	1.131
289.75	18.8315	2.42992	-0.00423474	1.13767
290.072	18.7838	2.43395	-0.00423866	1.1435
290.395	18.7501	2.43876	-0.00421217	1.14918
290.7168	18.7322	2.44398	-0.00424044	1.155356
291.039	18.6999	2.44954	-0.0042411	1.16139
291.361	18.6707	2.45592	-0.00414554	1.168987
291.684	18.6316	2.46119	-0.00423638	1.1779
292.006	18.5006	2.46719	-0.00424327	1.18482
292.328	18.2891	2.46896	-0.00418945	1.20455
292.65	18.1986	2.47537	-0.00421215	1.207901
292.973	18.3191	2.48574	-0.00428042	1.209
293.295	18.3429	2.492029	-0.00425167	1.21624
293.617	18.2008	2.49793	-0.004199612	1.22878
293.939	18.2878	2.502984	-0.00426827	1.23128
294.262	18.2095	2.50794	-0.00424158	1.235
294.584	18.3377	2.514221	-0.00418554	1.23933
294.906	18.33786	2.51873	-0.00421454	1.24616
295.229	18.1951	2.52467	-0.0042347	1.25507
295.551	18.2322	2.53171	-0.00417246	1.2614
295.873	18.05335	2.53766	-0.00422006	1.27369
296.195	18.05555	2.542609	-0.00430055	1.279248
296.518	18.0195	2.54894	-0.00424818	1.28343
296.84	18.1955	2.56347	-0.00425325	1.28894
297.162	17.6925	2.56025	-0.00428744	1.3027
297.484	17.8724	2.56758	-0.00423948	1.30623
297.807	17.9417	2.57279	-0.00420672	1.31075
298.129	17.9458	2.57823	-0.0042301	1.31606
298.451	17.8958	2.58307	-0.00424989	1.32244
298.773	17.8762	2.58918	-0.00417873	1.32878
299.0957	17.8574	2.5948	-0.0042022	1.3353
299.418	17.8338	2.59928	-0.00425873	1.34241
299.74	17.5748	2.60557	-0.00420813	1.35299
300.0625	17.7018	2.61283	-0.00422438	1.358218
300.385	17.6652	2.61883	-0.004237039	1.365
300.707	17.6419	2.62434	-0.00421952	1.37183
301.0293	17.5901	2.63057	-0.0042317	1.37948
301.352	17.5991	2.636344	-0.0042338	1.38649
301.674	17.5152	2.64249	-0.00423597	1.39407
301.996	17.48797	2.64855	-0.00419774	1.40043
302.318	17.444	2.6528	-0.00422906	1.40709
302.641	17.4274	2.65763	-0.00427416	1.41256
302.963	17.4051	2.66425	-0.00421826	1.41929
303.285	17.3367	2.66993	-0.0042433	1.42711
303.607	17.3137	2.677012	-0.004227899	1.433571
303.93	17.2085	2.68317	-0.0042116	1.44284
304.252	17.1645	2.6867	-0.00420773	1.44994
304.574	17.0493	2.69109	-0.00421528	1.45967
304.896	17.0452	2.7005	-0.00421273	1.46576
305.219	17.0103	2.70596	-0.00418445	1.47303
305.541	17.1085	2.71212	-0.00422646	1.47791
305.863	17.0279	2.71686	-0.00429692	1.48392
306.186	17.0333	2.72213	-0.00425025	1.489985
306.508	16.9687	2.72879	-0.00424824	1.49738
306.83	16.954	2.7339	-0.00424398	1.50343
307.152	16.8421	2.74092	-0.00416344	1.5126
307.475	16.8145	2.74682	-0.00417943	1.52032
307.797	16.8504	2.75065	-0.00416763	1.52681
308.119	16.4503	2.75882	-0.00417741	1.54639
308.441	16.4799	2.76385	-0.00416641	1.548321
308.764	16.6961	2.771055	-0.00428023	1.55069
309.086	16.7169	2.77552	-0.00423066	1.556903
309.4082	16.5592	2.78176	-0.00418598	1.56501
309.73	16.5166	2.78755	-0.00425129	1.57034
310.053	16.5342	2.79159	-0.00426579	1.57482
310.375	16.4983	2.79834	-0.00421768	1.58267
310.697	16.433	2.80314	-0.0042078	1.58905
311.02	16.4241	2.81006	-0.0042098	1.59641
311.3418	16.3389	2.81594	-0.00412999	1.60449
311.664	16.3203	2.82143	-0.00419627	1.61088
311.986	16.2952	2.82459	-0.00426345	1.61804
312.309	16.18211	2.83264	-0.00421373	1.62622
312.631	16.2892	2.84467	-0.00421903	1.63395
312.953	16.0084	2.84421	-0.00428106	1.6428
313.275	16.0229	2.85043	-0.00425661	1.64851
313.598	16.0621	2.85786	-0.00418195	1.65547
313.92	15.9519	2.86186	-0.00423707	1.66193
314.242	15.972	2.86688	-0.00419922	1.66745
314.564	15.9617	2.87304	-0.00416884	1.67433
314.887	15.9457	2.87896	-0.00426755	1.68107
315.209	15.8307	2.88543	-0.00423631	1.68974
315.531	15.8186	2.89107	-0.00420585	1.69679
315.854	15.7639	2.89978	-0.004216413	1.70361
316.176	15.6401	2.90176	-0.00430798	1.71111
316.498	15.5362	2.90867	-0.0041765	1.722863
316.82	15.6116	2.91467	-0.00422156	1.72698
317.143	15.5895	2.9211	-0.004241392	1.732645
317.465	15.5346	2.92674	-0.004175195	1.73928
317.787	15.4981	2.9317	-0.00418007	1.74534
318.109	15.4796	2.93672	-0.004275512	1.75129
318.432	15.30479	2.94671	-0.00423111	1.761893
318.754	15.0407	2.95026	-0.00421403	1.77843
319.076	15.272	2.954608	-0.00425719	1.78006
319.398	15.0848	2.95924	-0.00424131	1.78667
319.7207	15.1868	2.96699	-0.00416449	1.7902
320.043	15.201	2.97255	-0.00421363	1.79581
320.365	15.02017	2.97784	-0.00414897	1.80571
320.6875	15.1169	2.98411	-0.004178986	1.81124
321.01	15.0044	2.99053	-0.00421053	1.81823
321.332	14.9659	2.99582	-0.00424336	1.82464
321.6543	14.9297	3.00014	-0.00415337	1.83151
321.977	14.63647	3.00642	-0.00421883	1.84665
322.299	14.6953	3.01657	-0.00424334	1.85158
322.621	14.5127	3.020112	-0.00416642	1.86226
322.943	14.5536	3.0253	-0.004207775	1.86536
323.266	14.51202	3.0306	-0.00424529	1.87243
323.588	14.4632	3.03675	-0.004169628	1.87848
323.91	13.9445	3.03633	-0.00417717	1.88805
324.232	13.6011	3.047518	-0.0042221	1.906039
324.555	13.49689	3.05364	-0.0042022	1.90938
324.877	12.143	3.06005	-0.00423975	1.93247
325.199	11.3086	3.06561	-0.00426648	1.95011
325.521	10.7118	3.06985	-0.00417353	1.96409
325.844	8.878	3.07549	-0.00418798	2.00517
326.166	8.55204	3.08211	-0.00422096	2.01358
326.488	8.43256	3.0872	-0.00411966	2.01684
326.811	7.452374	3.09527	-0.00416064	2.0343
327.133	6.64728	3.10075	-0.00426513	2.05702
327.455	6.00994	3.10677	-0.00421986	2.070075
327.777	2.33769	3.11292	-0.00419555	2.13884
328.1	2.20653	3.11759	-0.00425683	2.158
328.422	1.88105	3.124069	-0.00422861	2.17617
328.744	1.61335	3.13074	-0.00413193	2.19544
329.066	1.54198	3.13622	-0.00418823	2.20119
329.389	1.24372	3.14126	-0.00413013	2.21623
329.711	0.0566947	3.14256	-0.00411002	3.12544
330.0332	0.0158247	3.15365	-0.00427136	5.289547
330.355	0.0107751	3.15717	-0.00419702	5.33586
330.678	0.00621079	3.16563	-0.004158563	5.343482
331	0.00280269	3.17025	-0.00422425	5.35144
331.322	3.40806e-05	3.17781	-0.00423228	5.35892
331.645	0.00101483	3.18218	-0.0041534	5.36801
331.9668	0.00200834	3.18729	-0.00422347	5.3774
332.289	0.00185102	3.19356	-0.00419725	5.38228
332.611	0.00276775	3.209703	-0.00416025	5.3951
332.934	0.0136591	3.20445	-0.00417572	5.40747
333.256	0.0154734	3.20094	-0.00424158	5.40629
333.578	0.0121446	3.21671	-0.00418984	5.4133
333.9	0.0167864	3.22216	-0.00417872	5.42674
334.223	0.0110221	3.22808	-0.00426577	5.4288
334.545	0.0076389	3.23259	-0.0041631	5.43165
334.867	0.00323298	3.23983	-0.00418386	5.43779
335.189	0.002382783	3.24573	-0.00422773	5.44687
335.512	-0.00156826	3.2524	-0.00417557	5.45169
335.834	0.001947378	3.257654	-0.00416745	5.45855
336.156	0.00375535	3.26365	-0.00429307	5.46568
336.479	0.00753924	3.27022	-0.0042289	5.47545
336.801	0.0148812	3.27242	-0.0042255	5.47978
337.123	0.0148505	3.283227	-0.00426173	5.4905
337.445	0.0150294	3.28701	-0.00421835	5.49872
337.768	0.0155255	3.29053	-0.0041815	5.503479
338.09	0.0165338	3.29695	-0.00422187	5.505281
338.412	0.00718022	3.3037	-0.0042175	5.51235
338.734	0.00652627	3.31047	-0.0041988	5.52046
339.057	0.00235082	3.3101	-0.00423742	5.52559
339.291	0.00850117	3.31217	-0.00424913	5.52623