File: shares/flx_lsms_hydrogen/EXPERIMENTAL_DATA/LABO_SOETE/WP1_TENSILE/H2_HC1/MTS/LYARR13/specimen.dat
MTS793|MPT|ENU|1|2|.|/|:|1|0|0|A

Data Acquisition						Time:	15.0195	s	1/27/2022 10:04:05 AM
Time	ESH B Force	ESH B Displacement	Analog In 2	Analog In 1
s	kN	mm	V	V
0.0332031	0.382457	10.0012	-0.0239703	0.00330779
0.80957	0.36679	9.99959	-0.024043	0.00306215
1.58594	0.40508	10.0032	-0.0236929	0.00335285
2.3623	0.43857	10.007	-0.0236533	0.0033313
3.13867	0.447407	10.0074	-0.0233889	0.003195439
3.91504	0.440156	10.0064	-0.0236759	0.00337944
4.69141	0.491323	10.0121	-0.0233961	0.00331198
5.46777	0.510878	10.0128	-0.0234458	0.00304749
6.24414	0.470017	10.0115	-0.0233755	0.00332686
7.02051	0.547787	10.017	-0.0231204	0.00346151
7.796875	0.542694	10.0188	-0.0232238	0.00304307
8.57324	0.548295	10.0185	-0.0231784	0.00312822
9.34961	0.564081	10.0207	-0.0230874	0.00344168
10.126	0.616393	10.0243	-0.0228827	0.00323149
10.9023	0.599469	10.0246	-0.0229378	0.00300819
11.6787	0.5985108	10.0235	-0.0231351	0.00330425
12.4551	0.654359	10.0299	-0.02249857	0.0033882
13.2314	0.686343	10.0298	-0.02257851	0.0031099
14.0078	0.635334	10.02945	-0.0228962	0.00316027
14.78418	0.721347	10.03463	-0.0225599	0.0032917
15.5605	0.705146	10.0346	-0.0226274	0.00305616
16.3369	0.720747	10.0359	-0.0226085	0.00318552
17.1133	0.75612	10.0393	-0.02256562	0.00349741
17.8896	0.80187	10.0426	-0.02229527	0.00317013
18.666	0.799803	10.0426	-0.0222974	0.00302629
19.4424	0.771438	10.042	-0.0225476	0.00341583
20.21875	0.878349	10.0473	-0.0219608	0.0033323
20.9951	0.888927	10.0486	-0.0219872	0.0030056
21.7715	0.850743	10.0474	-0.0223095	0.00319917
22.5479	0.921755	10.0516	-0.0219436	0.00339035
23.3242	0.948754	10.0528	-0.0219957	0.00308419
24.1006	0.935077	10.0528	-0.022006	0.0031137
24.877	0.984551	10.05452	-0.02196894	0.00327202
25.65332	1.04011	10.0595	-0.0217304	0.00308636
26.4297	1.06918	10.0594	-0.0217058	0.00315235
27.2061	1.00544	10.0587	-0.021693	0.00334237
27.9824	1.14694	10.0653	-0.02142	0.003074107
28.7588	1.13139	10.0648	-0.0214418	0.00292652
29.5352	1.127847	10.0648	-0.0213636	0.00329662
30.3115	1.21034	10.0696	-0.021063	0.00330984
31.0879	1.22569	10.0712	-0.0211838	0.00298568
31.8643	1.23119	10.0707	-0.0208101	0.00312729
32.6406	1.24708	10.0719	-0.0207782	0.0033558
33.417	1.3642	10.07711	-0.0204747	0.00315539
34.1934	1.34674	10.0768	-0.0205673	0.00299016
34.9697	1.3266	10.0766	-0.0207968	0.0032602
35.7461	1.4435	10.082	-0.02019312	0.00320538
36.5225	1.48324	10.0833	-0.0201789	0.00307062
37.2988	1.407685	10.082	-0.0201886	0.00327359
38.0752	1.54048	10.0863	-0.019955	0.00319186
38.8516	1.55397	10.0878	-0.01960643	0.0029176
39.62793	1.58344	10.0886	-0.0195488	0.00318572
40.4043	1.55836	10.0889	-0.019502	0.00335967
41.1807	1.72119	10.095	-0.0189419	0.00290973
41.957	1.69712	10.0946	-0.019249	0.00301248
42.7334	1.64662	10.0934	-0.0191992	0.00332381
43.5098	1.78724	10.0997	-0.0189041	0.00316147
44.2861	1.79853	10.1001	-0.0189711	0.00296154
45.0625	1.77516	10.0992	-0.0188793	0.00325781
45.8389	1.89583	10.1035	-0.0186395	0.00323524
46.6152	1.94868	10.1063	-0.0183787	0.00303712
47.3916	1.94817	10.1063	-0.0183785	0.00323197
48.168	1.91601	10.1061	-0.0183557	0.00314713
48.9443	2.08092	10.11241	-0.0178165	0.00288119
49.7207	2.095058	10.11207	-0.01788884	0.00321205
50.49707	2.02414	10.1107	-0.0180459	0.00331375
51.2734	2.19663	10.1165	-0.0175217	0.00292334
52.0498	2.17925	10.1173	-0.0175164	0.00303244
52.8262	2.1894	10.1173	-0.0174477	0.0033088
53.6025	2.25896	10.1206	-0.0174838	0.0030538
54.3789	2.37167	10.12415	-0.0169089	0.00297452
55.1553	2.34319	10.1241	-0.016909	0.00316719
55.9316	2.31657	10.1237	-0.0172177	0.00298151
56.708	2.50764	10.1297	-0.0166036	0.003139925
57.4844	2.53205	10.1306	-0.01625506	0.00333934
58.2607	2.45559	10.1291	-0.0166591	0.00292172
59.0371	2.59159	10.1339	-0.0163347	0.0029684
59.8135	2.63329	10.135	-0.01598791	0.00329469
60.5898	2.62966	10.1359	-0.015973	0.00308568
61.3662	2.64676	10.1361	-0.0163376	0.00295769
62.1426	2.79536	10.1413	-0.0157255	0.00318785
62.9189	2.80874	10.1422	-0.015435	0.00300068
63.6953	2.71975	10.1408	-0.01573376	0.00303907
64.47168	2.94743	10.1469	-0.0150283	0.00332375
65.248	2.94237	10.1468	-0.0151352	0.00297824
66.0244	2.90525	10.1462	-0.0151301	0.002884856
66.8008	3.04744	10.1515	-0.0146508	0.00329394
67.5771	3.10103	10.1529	-0.0143912	0.00307739
68.3535	3.10605	10.1529	-0.0144222	0.00288371
69.1299	3.11198	10.1543	-0.0146652	0.00313462
69.90625	3.27533	10.1596	-0.0141022	0.0031409
70.6826	3.2831	10.1591	-0.0141187	0.00300516
71.459	3.22342	10.1587	-0.0141042	0.00325562
72.2354	3.41029	10.164	-0.0135152	0.0030544
73.0117	3.45341	10.1622	-0.0135853	0.00282206
73.7881	3.43074	10.1626	-0.0132146	0.00322919
74.5645	3.51325	10.1678	-0.0131783	0.00317703
75.34082	3.59549	10.1712	-0.01295589	0.00284762
76.1172	3.60344	10.1701	-0.0129641	0.00310352
76.8936	3.57933	10.1716	-0.0128865	0.00324778
77.6699	3.785794	10.1769	-0.0126353	0.00296472
78.4463	3.77264	10.1767	-0.0123144	0.00297068
79.2227	3.71708	10.1757	-0.0125891	0.003104364
79.999	3.89894	10.18136	-0.0120445	0.0028879
80.7754	3.94828	10.1822	-0.012025	0.00302003
81.5518	3.91317	10.1825	-0.0119619	0.00327884
82.3281	4.02487	10.1851	-0.0120705	0.0029036
83.1045	4.15649	10.1889	-0.0114295	0.0028575
83.8809	4.132875	10.1887	-0.0113675	0.00321308
84.6572	4.08205	10.1882	-0.0114282	0.00306602
85.4336	4.31025	10.1945	-0.0109617	0.002817105
86.21	4.35387	10.1948	-0.0109159	0.00306604
86.9863	4.24397	10.1931	-0.0108543	0.00306505
87.7627	4.44138	10.1987	-0.0106219	0.00292949
88.5391	4.47542	10.2007	-0.0102458	0.0031215
89.31543	4.50034	10.2007	-0.01029969	0.00294391
90.0918	4.4658	10.2011	-0.0106253	0.00267893
90.8682	4.70003	10.2064	-0.00955338	0.00312279
91.6445	4.69126	10.2071	-0.009569779	0.00309743
92.4209	4.672277	10.2061	-0.00966466	0.00271814
93.1973	4.85273	10.2115	-0.00929421	0.00298619
93.9736	4.9908	10.2145	-0.00893359	0.00308103
94.75	4.954865	10.2087	-0.00900474	0.002830517
95.5264	4.945713	10.2152	-0.00898032	0.00297524
96.3027	5.06861	10.2175	-0.00840734	0.00297789
97.0791	5.0983	10.2191	-0.00843582	0.00270193
97.8555	5.06954	10.2187	-0.00864932	0.00307618
98.6318	5.30134	10.2241	-0.00805698	0.00309455
99.4082	5.31679	10.2241	-0.00785561	0.00277363
100.185	5.21794	10.2232	-0.00810394	0.00293085
100.961	5.46276	10.2282	-0.00749843	0.00314482
101.7373	5.47609	10.2295	-0.007578582	0.00287988
102.514	5.471437	10.2284	-0.0075454	0.00295076
103.29	5.57222	10.2327	-0.00718928	0.00299923
104.066	5.75021	10.23713	-0.00662826	0.002712704
104.843	5.72416	10.2362	-0.00659768	0.00304255
105.619	5.66338	10.2351	-0.00691882	0.00312495
106.396	5.90609	10.2413	-0.00638896	0.00273108
107.172	5.92939	10.2415	-0.00633375	0.00297089
107.948	5.87144	10.2407	-0.00627881	0.00315817
108.725	6.09743	10.2457	-0.00578409	0.00285122
109.501	6.1333	10.2473	-0.00545282	0.00286157
110.277	6.1497	10.2472	-0.0054666	0.00300728
111.054	6.1871	10.2488	-0.00548378	0.00275958
111.83	6.39	10.2534	-0.00474988	0.00297423
112.606	6.40218	10.2544	-0.00471274	0.00315647
113.383	6.33077	10.2523	-0.00481	0.00272997
114.159	6.58162	10.258	-0.00418976	0.00276113
114.936	6.58362	10.2589	-0.004134933	0.0031504
115.712	6.59199	10.2588	-0.00414595	0.00290843
116.488	6.76711	10.263	-0.00392009	0.00271109
117.265	6.85893	10.2656	-0.00322715	0.00296434
118.041	6.85178	10.2651	-0.00354212	0.00289457
118.817	6.85022	10.2651	-0.0033212	0.002814
119.594	7.07753	10.2713	-0.0026389	0.00309033
120.37	7.0823	10.2707	-0.00268748	0.00287642
121.146	7.01999	10.2701	-0.002700754	0.00264869
121.923	7.23422	10.2757	-0.00230535	0.0030199
122.699	7.27623	10.2759	-0.00202731	0.00307736
123.476	7.26483	10.2768	-0.00205197	0.00266112
124.252	7.41416	10.2791	-0.00178638	0.00284069
125.028	7.55946	10.2827	-0.00115676	0.00306333
125.805	7.55458	10.2821	-0.00119068	0.00284541
126.581	7.53906	10.2832	-0.00119805	0.00271561
127.357	7.79152	10.2882	-0.000526871	0.00296957
128.134	7.867	10.2896	7.18421e-05	0.0028911
128.91	7.75582	10.2882	-0.000214935	0.00277923
129.687	7.98209	10.2932	9.26928e-05	0.00306552
130.463	8.08129	10.2938	0.000305387	0.00289105
131.239	8.07747	10.2946	0.000609304	0.00223811
132.016	8.09935	10.2954	0.000696309	0.00296104
132.792	8.31141	10.3009	0.00120979	0.00305014
133.568	8.31983	10.3014	0.00116515	0.00262452
134.345	8.25072	10.3002	0.000940274	0.00274882
135.121	8.52931	10.3063	0.00176242	0.003091553
135.897	8.57076	10.30651	0.00170858	0.00264484
136.674	8.49861	10.3044	0.0016535	0.00269166
137.4502	8.687151	10.3093	0.002086	0.00290856
138.227	8.82574	10.3123	0.0026581	0.00249153
139.003	8.83919	10.3125	0.00263539	0.00239994
139.7793	8.7729	10.3121	0.00272237	0.00310107
140.556	9.09618	10.3188	0.00323383	0.00237869
141.332	9.10465	10.3186	0.00355331	0.00264539
142.1084	9.01627	10.3173	0.00362672	0.00304448
142.885	9.25465	10.3227	0.00418839	0.00254493
143.661	9.34175	10.3241	0.00452004	0.002266028
144.4375	9.30279	10.3245	0.00454937	0.00256963
145.214	9.43383	10.3272	0.00455013	0.002508769
145.99	9.63519	10.3304	0.00543006	0.00241637
146.7666	9.64773	10.33	0.005525629	0.002749627
147.543	9.58877	10.3291	0.00546389	0.0023845
148.319	9.84242	10.335	0.00598874	0.00256203
149.0957	9.88818	10.3364	0.00609055	0.00298289
149.872	9.81678	10.3353	0.00601584	0.00276409
150.648	10.0308	10.34002	0.00662004	0.0022289
151.4248	10.1161	10.3422	0.00699942	0.00251553
152.201	10.1276	10.3417	0.00695871	0.00243505
152.978	10.1642	10.3428	0.00697747	0.00241486
153.754	10.4418	10.3476	0.00788352	0.00271343
154.53	10.4293	10.3473	0.008159766	0.00239032
155.307	10.3607	10.3471	0.00780019	0.00218457
156.083	10.8375	10.3554	0.00849544	0.00269937
156.859	10.7035	10.3536	0.00874609	0.002487
157.636	10.6228	10.3524	0.00899209	0.00254369
158.412	10.8381	10.3569	0.00947763	0.0024984
159.188	10.97249	10.3592	0.0101518	0.00253701
159.965	10.9917	10.3596	0.0101115	0.00237348
160.741	10.9665	10.3602	0.0100942	0.00271619
161.518	11.2577	10.36557	0.0109079	0.002440952
162.294	11.25018	10.3649	0.0109323	0.00220175
163.07	11.2021	10.365	0.0110024	0.0026278
163.847	11.4506	10.3702	0.0116177	0.00257517
164.623	11.4751	10.3708	0.0118098	0.002224898
165.399	11.5086	10.371	0.0118659	0.002548103
166.176	11.6406	10.3751	0.0121795	0.00290824
166.952	11.831	10.37734	0.01272088	0.00233493
167.729	11.8017	10.377	0.0130376	0.00264238
168.505	11.7807	10.3764	0.0126916	0.00241327
169.281	12.0644	10.3826	0.0135765	0.00220786
170.058	12.0873	10.3824	0.013916	0.00263611
170.834	12.0273	10.382	0.013917	0.00249217
171.61	12.3034	10.3873	0.0142875	0.00224855
172.387	12.34054	10.3884	0.0149231	0.002541339
173.163	12.3583	10.3877	0.014946	0.00249218
173.939	12.4335	10.3909	0.0151961	0.00239
174.716	12.708	10.395	0.0161944	0.00269191
175.492	12.68871	10.3944	0.016141	0.00236674
176.269	12.6341	10.3943	0.0160504	0.002235
177.045	12.908	10.3996	0.0167141	0.0026133
177.821	12.9085	10.4002	0.0169893	0.00242412
178.598	12.8994	10.40047	0.0169182	0.00220779
179.374	13.0988	10.4045	0.017286	0.00248457
180.15	13.2325	10.4067	0.0181789	0.00240372
180.927	13.2203	10.4063	0.0181718	0.0023645
181.703	13.2306	10.4077	0.0182078	0.00269362
182.479	13.5065	10.4132	0.0191438	0.00226403
183.256	13.512	10.413	0.0191322	0.002216357
184.032	13.4503	10.4122	0.0192053	0.00259659
184.809	13.72798	10.4168	0.0197367	0.00241236
185.585	13.74694	10.417	0.020343	0.00224001
186.361	13.77	10.4184	0.0203553	0.00246549
187.1377	13.8999	10.4207	0.0207121	0.00230669
187.914	14.1022	10.4242	0.0215455	0.0023672
188.69	14.0737	10.4237	0.0216153	0.00266748
189.4668	14.0262	10.424	0.0212094	0.00220428
190.243	14.3872	10.4297	0.0224782	0.00229181
191.02	14.385	10.4304	0.0227619	0.00258764
191.7959	14.34961	10.4292	0.0227456	0.002346138
192.572	14.58524	10.4326	0.0229988	0.00223593
193.349	14.9732	10.4366	0.0246315	0.00250351
194.125	14.6421	10.43751	0.0245704	0.00222688
194.901	14.6813	10.43759	0.0243408	0.00240346
195.678	14.9762	10.4422	0.0252872	0.00261255
196.4541	15.0267	10.4418	0.0254955	0.002177276
197.23	14.86158	10.4415	0.0254897	0.00224969
198.007	15.2117	10.4475	0.0260947	0.00255889
198.7832	15.2264	10.4474	0.0264025	0.00225376
199.56	15.2214	10.4468	0.0263773	0.00232959
200.336	15.3685	10.4508	0.0266844	0.00233419
201.1123	15.7844	10.45535	0.0284356	0.00207143
201.889	15.7829	10.4526	0.0285213	0.00252719
202.665	15.7326	10.4537	0.0288784	0.00246414
203.441	15.7657	10.45969	0.0288351	0.00209487
204.218	15.78342	10.46	0.0291624	0.00244999
204.994	15.7328	10.4593	0.0291525	0.00226243
205.771	16.0157	10.464	0.029788	0.00226902
206.547	16.0803	10.4654	0.0304064	0.00255045
207.323	16.0723	10.4651	0.0303496	0.00210656
208.1	16.1686	10.4674	0.030379	0.00227286
208.876	16.3622	10.4723	0.0313201	0.00250391
209.652	16.3649	10.4722	0.0315752	0.0022277
210.429	16.2903	10.4707	0.0315679	0.00237619
211.205	16.6033	10.477	0.03247603	0.00236782
211.981	16.6397	10.4779	0.0330517	0.00209944
212.758	16.5999	10.47698	0.0334547	0.00248243
213.534	16.8199	10.4807	0.0337831	0.00243158
214.311	16.935	10.4834	0.0346547	0.00210242
215.087	16.9412	10.4844	0.0347207	0.00239817
215.863	16.8808	10.4837	0.0346807	0.00233477
216.64	17.1997	10.4897	0.03556376	0.00230663
217.416	17.1956	10.4894	0.0362238	0.00256778
218.192	17.1348	10.4888	0.0361053	0.00214777
218.969	17.42668	10.4944	0.0370617	0.00223014
219.745	17.4918	10.49541	0.0377418	0.00249683
220.521	17.4792	10.4943	0.0379301	0.00220986
221.298	17.5823	10.4976	0.0382782	0.00244
222.074	17.7373	10.5012	0.03954545	0.00222831
222.851	17.7289	10.5017	0.0398251	0.00208908
223.627	17.6367	10.50019	0.0398651	0.00248321
224.403	17.9654	10.5062	0.040754	0.00220247
225.18	17.9739	10.507	0.0413058	0.0022352
225.956	17.9036	10.5063	0.0416819	0.0023382
226.732	18.1685	10.5107	0.0422443	0.00204627
227.509	18.2376	10.51328	0.04361517	0.00245956
228.285	18.2353	10.5128	0.0441319	0.0022529
229.062	18.1781	10.5136	0.0440945	0.00213787
229.838	18.469	10.5194	0.0453912	0.00230135
230.614	18.4347	10.5184	0.0458681	0.00202484
231.391	18.3702	10.5189	0.0462852	0.00243861
232.167	18.6262	10.5236	0.0471193	0.00232708
232.943	18.6479	10.52485	0.0479984	0.0020943
233.72	18.5789	10.5241	0.0484546	0.00236582
234.496	18.7515	10.52749	0.0489963	0.00205999
235.272	18.8921	10.5316	0.0507618	0.00235954
236.049	18.8365	10.5311	0.0514229	0.002382884
236.8252	18.7832	10.5299	0.0516664	0.00203193
237.602	19.0497	10.5366	0.0533058	0.00231872
238.378	18.9964	10.5366	0.0542362	0.00217799
239.1543	18.9123	10.5357	0.0545514	0.00226068
239.931	19.1422	10.5408	0.0554305	0.00241905
240.707	19.1674	10.5424	0.0568446	0.00203312
241.4834	19.1288	10.542	0.057486	0.00231974
242.26	19.1751	10.5443	0.05821206	0.00228905
243.036	19.379	10.5488	0.0600024	0.00218332
243.8125	19.2778	10.54812	0.0612368	0.00248663
244.589	19.2189	10.5481	0.0614662	0.00206614
245.365	19.4704	10.5535	0.0626893	0.00221367
246.1416	19.4217	10.5547	0.06461446	0.00230278
246.918	19.3405	10.5533	0.065197	0.00217667
247.694	19.5181	10.5577	0.0658004	0.0024745
248.4707	19.62071	10.5613	0.0679023	0.00207221
249.247	19.5416	10.5603	0.0691289	0.00214607
250.023	19.4836	10.5602	0.0698633	0.00235849
250.7998	19.7232	10.5669	0.0715794	0.00213038
251.576	19.63541	10.5659	0.0729147	0.00245729
252.353	19.5656	10.5659	0.0734048	0.00203396
253.129	19.7784	10.5714	0.0748517	0.00213629
253.905	19.7386	10.57194	0.07643982	0.0023639
254.682	19.7012	10.572	0.0772539	0.00216198
255.458	19.75663	10.5738	0.07797116	0.00247492
256.234	19.9415	10.5781	0.08003	0.00203026
257.011	19.8271	10.5779	0.0813458	0.0021939
257.787	19.7363	10.5774	0.0819267	0.00233876
258.563	19.9843	10.5833	0.0837267	0.00210062
259.34	19.9358	10.5839	0.08559943	0.00244725
260.116	19.8342	10.583	0.0864377	0.00202905
260.893	20.0244	10.5876	0.0870414	0.00214085
261.669	20.0558	10.5905	0.0896688	0.00233332
262.445	19.9942	10.58966	0.0907809	0.00209354
263.222	19.8832	10.58955	0.0910988	0.00241875
263.998	20.1893	10.596	0.0932148	0.002044355
264.774	20.0956	10.59505	0.095054	0.00206671
265.551	20.0003	10.5955	0.095977	0.00236585
266.327	20.1954	10.6011	0.0972777	0.00213855
267.104	20.1616	10.6021	0.0989787	0.002366733
267.88	20.1073	10.602	0.100118	0.00211976
268.656	20.10194	10.6034	0.100701	0.00202965
269.433	20.2958	10.6081	0.103	0.00237871
270.209	20.2017	10.60715	0.104146	0.0020948
270.985	20.1279	10.6073	0.105105	0.002354858
271.762	20.3849	10.613	0.106927	0.0020553
272.538	20.3192	10.6131	0.109358	0.00200367
273.314	20.1835	10.6123	0.110267	0.00231683
274.091	20.3858	10.6172	0.111136	0.0020494
274.867	20.351	10.6199	0.114293	0.00236256
275.644	20.2973	10.6195	0.115423	0.0020882
276.42	20.2474	10.6205	0.115998	0.00202767
277.196	20.5283	10.6263	0.118225	0.00233954
277.973	20.4357	10.6252	0.120051	0.002066575
278.749	20.27783	10.626	0.120968	0.00236301
279.525	20.5244	10.6307	0.122152	0.00202839
280.302	20.4556	10.6307	0.124251	0.00203035
281.078	20.4015	10.6316	0.125182	0.002309748
281.854	20.4688	10.6342	0.12605	0.002063785
282.631	20.5794	10.6376	0.1282744	0.00238335
283.407	20.4722	10.6371	0.1293875	0.00199329
284.184	20.417	10.6373	0.1299666	0.00206615
284.96	20.6472	10.6424	0.132003	0.00229689
285.736	20.5518	10.6428	0.13378	0.00207908
286.5127	20.4617	10.643	0.134611	0.00236771
287.289	20.6868	10.648	0.136196	0.00194532
288.065	20.6346	10.6497	0.138586	0.00210776
288.8418	20.5753	10.6492	0.1398225	0.002308246
289.618	20.555	10.6499	0.1403791	0.00205208
290.395	20.7517	10.6559	0.142975	0.00240265
291.1709	20.6467	10.655	0.144419	0.001915563
291.947	20.5771	10.6548	0.145336	0.002128388
292.724	20.77441	10.6604	0.146872	0.00220756
293.5	20.676	10.6608	0.149294	0.00206356
294.276	20.617	10.6605	0.150541	0.00232079
295.053	20.7669	10.66431	0.151424	0.00191452
295.8291	20.8095	10.6678	0.153876	0.00220095
296.605	20.7273	10.6678	0.155391	0.00210137
297.382	20.6672	10.6673	0.156827	0.00212524
298.1582	20.8909	10.6742	0.1588724	0.00226813
298.935	20.777	10.6732	0.1606916	0.00188699
299.711	20.6442	10.672	0.161632	0.00218364
300.4873	20.8468	10.6774	0.162885	0.00198211
301.264	20.8293	10.6789	0.164938	0.00219191
302.04	20.7704	10.6785	0.166589	0.0022472
302.816	20.70006	10.6789	0.167141	0.00189724
303.593	20.9329	10.685	0.169323	0.00219358
304.369	20.8333	10.684	0.171178	0.00195612
305.146	20.73418	10.6847	0.171842	0.00220677
305.922	20.9429	10.6902	0.173598	0.00218502
306.698	20.875	10.6907	0.175698	0.0018457
307.475	20.7814	10.6899	0.1769523	0.00218004
308.251	20.88306	10.69292	0.177506	0.0019429
309.027	20.9986	10.6968	0.180643	0.00219025
309.804	20.8748	10.6965	0.182579	0.00222886
310.58	20.8202	10.6973	0.183316	0.001912077
311.356	21.0035	10.7021	0.1858443	0.0021421
312.133	20.9103	10.7029	0.187623	0.00188221
312.909	20.8018	10.7022	0.188589	0.00220074
313.686	20.99535	10.7071	0.189751	0.00222026
314.462	20.96768	10.7087	0.1922247	0.00185382
315.238	20.9024	10.7085	0.193523	0.002176811
316.015	20.8977	10.7097	0.194093	0.00191312
316.791	21.0743	10.715	0.196807	0.00220288
317.567	20.95	10.7143	0.1985656	0.00216518
318.344	20.8615	10.7145	0.199858	0.00187136
319.12	21.0667	10.7194	0.201376	0.0020937
319.896	20.9516	10.7199	0.203415	0.00184996
320.673	20.9089	10.7196	0.20439	0.00218313
321.449	21.0427	10.7244	0.2054	0.00216198
322.226	21.0845	10.727	0.20829	0.00190689
323.002	20.9616	10.7264	0.209953	0.00214898
323.778	20.905	10.7267	0.210515	0.00186233
324.555	21.1337	10.7315	0.213279	0.00220164
325.331	21.0156	10.7326	0.215461	0.00211085
326.107	20.9082	10.732	0.216278	0.0018935
326.884	21.1012	10.7362	0.21785	0.00214073
327.66	21.0457	10.738	0.219991	0.00181139
328.437	20.973	10.738	0.221245	0.00225941
329.213	20.955	10.7389	0.222107	0.00204818
329.989	21.148	10.7444	0.224565	0.00194346
330.766	21.0385	10.7438	0.226388	0.00208315
331.542	20.9239	10.7435	0.227265	0.00183326
332.318	21.1734	10.7498	0.229186	0.00225594
333.095	21.0638	10.75004	0.2315055	0.00200829
333.871	20.9642	10.749	0.232791	0.00205487
334.647	21.1018	10.7536	0.233627	0.002043484
335.424	21.16161	10.7565	0.236783	0.00183285
336.2002	21.0309	10.7557	0.238254	0.00221852
336.977	20.9627	10.7561	0.239212	0.00195031
337.753	21.1916	10.7613	0.241641	0.00217281
338.5293	21.11046	10.7626	0.2437942	0.00192871
339.306	20.97607	10.7617	0.244991	0.00198208
340.082	21.1638	10.7666	0.246478	0.0022025
340.8584	21.10721	10.7678	0.248896	0.00198035
341.635	21.0326	10.7679	0.250182	0.00228161
342.411	21.0201	10.76938	0.250648	0.001854013
343.1875	21.1796	10.7746	0.25317	0.00206886
343.964	21.0668	10.7735	0.254731	0.0019226
344.74	20.9818	10.7733	0.255615	0.00206522
345.5166	21.2273	10.779	0.257677	0.00213901
346.293	21.0873	10.7798	0.260484	0.0018215
347.069	21.0178	10.7789	0.2617082	0.00207608
347.8457	21.1663	10.7827	0.262512	0.00174585
348.622	21.1947	10.7866	0.266613	0.00219355
349.398	21.0772	10.7856	0.268393	0.00196869
350.1748	21.0255	10.7852	0.269357	0.00211172
350.951	21.202	10.7929	0.271016	0.001891252
351.728	21.0837	10.7916	0.272954	0.0019566
352.504	20.9545	10.7902	0.273895	0.00210508
353.28	21.2221	10.7959	0.275377	0.00193755
354.057	21.1169	10.7968	0.278511	0.00216723
354.833	21.0557	10.7978	0.279894	0.00179809
355.609	21.1144	10.8006	0.280863	0.00207269
356.386	21.2032	10.8036	0.282932	0.00172277
357.162	21.0885	10.8033	0.284888	0.0021398
357.938	20.9951	10.804	0.285732	0.00191903
358.715	21.1994	10.8087	0.287245	0.00201409
359.491	21.1125	10.8093	0.289476	0.00186828
360.268	21.01786	10.8084	0.290724	0.00185857
361.044	21.1794	10.8131	0.291624	0.00207263
361.82	21.20182	10.8157	0.294546	0.00188707
362.597	21.067	10.8146	0.296146	0.00216341
363.373	21.017	10.8157	0.2969676	0.00175206
364.149	21.2284	10.8212	0.299532	0.00202325
364.926	21.10778	10.8214	0.301623	0.00176699
365.702	20.997	10.8207	0.302669	0.00204752
366.479	21.2074	10.8256	0.3040961	0.00200763
367.255	21.1532	10.8279	0.307174	0.00177109
368.031	21.0691	10.8278	0.308469	0.00198068
368.808	21.0566	10.8279	0.309333	0.00173352
369.584	21.21904	10.834	0.3124797	0.00211015
370.36	21.0979	10.8332	0.3142722	0.00183238
371.137	21.0027	10.8336	0.315516	0.00197315
371.913	21.215	10.8379	0.3171404	0.00187878
372.689	21.1087	10.839	0.31974	0.00182279
373.466	21.0399	10.8384	0.321006	0.00209026
374.242	21.0854	10.842	0.322171	0.00186774
375.019	21.1888	10.8461	0.324731	0.00215695
375.795	21.06208	10.8454	0.326111	0.00176212
376.571	21.0167	10.845	0.32719	0.00193337
377.348	21.2174	10.8518	0.329272	0.00201343
378.124	21.0868	10.8504	0.331702	0.0018835
378.9	20.98885	10.8501	0.332663	0.00212433
379.677	21.1877	10.8554	0.3340891	0.00172632
380.453	21.1409	10.85745	0.336969	0.00197067
381.229	21.04817	10.8567	0.338394	0.00182145
382.006	21.0294	10.8585	0.339019	0.00194771
382.782	21.2161	10.8635	0.342151	0.00199989
383.559	21.0744	10.8627	0.344143	0.00170502
384.335	20.96031	10.8626	0.345128	0.00194866
385.111	21.1979	10.86797	0.346958	0.00168359
385.8877	21.0591	10.8684	0.349395	0.00208121
386.664	20.9907	10.86851	0.350578	0.001822621
387.44	21.1199	10.873	0.351658	0.00193827
388.2168	21.1506	10.8761	0.354571	0.00182928
388.993	21.0279	10.87514	0.355731	0.00177149
389.77	20.9708	10.8745	0.356886	0.00206891
390.5459	21.2038	10.8812	0.359254	0.00182405
391.322	21.07095	10.8807	0.3617346	0.00209738
392.099	20.9589	10.8802	0.362881	0.00170398
392.875	21.1919	10.8854	0.364383	0.0019576
393.651	21.0843	10.8865	0.367485	0.00185205
394.428	20.9988	10.8865	0.368991	0.0019232
395.2041	21.0124	10.888	0.369587	0.00199542
395.98	21.1421	10.8931	0.372249	0.00169387
396.757	21.0181	10.8924	0.374098	0.0019414
397.5332	20.9056	10.892	0.3747111	0.00165575
398.31	21.1805	10.8977	0.376945	0.00203583
399.086	21.0449	10.8976	0.379675	0.00183656
399.8623	20.9456	10.8977	0.380957	0.001947013
400.639	21.0754	10.9018	0.381758	0.001810275
401.415	21.108	10.9047	0.384735	0.00172763
402.191	20.991	10.9044	0.386755	0.00200021
402.968	20.9135	10.9044	0.38724	0.00175913
403.744	21.1134	10.9104	0.389395	0.0020989
404.521	21.0245	10.9102	0.391527	0.00167861
405.297	20.8879	10.9105	0.392385	0.00189923
406.073	21.1451	10.9158	0.3941929	0.00168708
406.85	21.0449	10.9164	0.397022	0.0019961
407.626	20.9551	10.9166	0.398439	0.00186378
408.402	20.9477	10.9177	0.399432	0.00182774
409.179	21.10813	10.9235	0.402718	0.00181411
409.955	20.9534	10.9218	0.404529	0.0017445
410.731	20.8932	10.922	0.405348	0.00196333
411.508	21.1184	10.92765	0.407723	0.00177955
412.284	20.9823	10.9278	0.410529	0.00201406
413.061	20.8761	10.9275	0.411348	0.00164805
413.837	21.0548	10.932	0.412626	0.00190311
414.613	21.04	10.934	0.415686	0.00161007
415.39	20.9166	10.9333	0.416832	0.00201633
416.166	20.9159	10.9354	0.4179621	0.00175146
416.942	21.05995	10.93	0.424531	0.00204396
417.719	20.9361	10.9254	0.42715	0.00163707
418.495	20.8551	10.94407	0.428425	0.00187369
419.271	20.79714	10.9452	0.428981	0.00175404
420.048	21.0051	10.948	0.43466	0.00192265
420.824	20.9082	10.9305	0.436718	0.0018724
421.601	20.8139	10.9526	0.437879	0.00175966
422.377	20.74972	10.9533	0.4381777	0.00153849
423.153	20.9633	10.9425	0.438755	0.0016437
423.93	20.6112	10.9522	0.439191	0.00171452
424.706	20.8855	10.9577	0.440394	0.00171793
425.482	20.8245	10.9568	0.441292	0.00174631
426.259	20.8101	10.9572	0.442025	0.00136531
427.035	20.9761	10.9622	0.44364	0.0015721
427.812	20.9768	10.9637	0.4457849	0.0015195
428.588	20.8785	10.9634	0.447262	0.00184046
429.364	20.8925	10.9642	0.447909	0.00191979
430.141	21.0305	10.9696	0.450593	0.00161714
430.917	20.89954	10.9696	0.452785	0.00158299
431.693	20.783	10.9696	0.453699	0.00127255
432.47	21.0179	10.9749	0.455683	0.00167804
433.246	20.8829	10.9757	0.457966	0.00149691
434.022	20.7982	10.9746	0.459526	0.00143833
434.799	20.9343	10.9781	0.460455	0.00151447
435.5752	20.9663	10.9811	0.4635362	0.001269543
436.352	20.8474	10.98118	0.46512	0.00171307
437.128	20.77953	10.98131	0.4659133	0.00138841
437.9043	21.0741	10.989	0.469375	0.00160846
438.681	20.9052	10.9892	0.473965	0.00139166
439.457	20.7962	10.9906	0.475716	0.00135437
440.2334	20.7484	10.9913	0.476667	0.00166568
441.01	20.775	10.9931	0.477814	0.00137106
441.786	20.7369	10.993	0.478856	0.00169669
442.5625	20.78639	10.9941	0.479416	0.00128859
443.339	20.9144	10.9997	0.481997	0.00147316
444.115	20.812	10.9987	0.483436	0.00156774
444.8916	20.7094	10.9991	0.484348	0.00146738
445.668	20.9467	11.0044	0.486427	0.00164975
446.444	20.8173	11.00456	0.488878	0.00129167
447.2207	20.73007	11.0045	0.489993	0.0015299
447.997	20.878	11.0091	0.4911426	0.001323677
448.773	20.8834	11.0108	0.494289	0.00157051
449.5498	20.7606	11.0112	0.495791	0.0014931
450.326	20.7117	11.0109	0.496312	0.00128394
451.103	20.9154	11.0176	0.4991512	0.001559495
451.879	20.7712	11.0173	0.501235	0.001252141
452.655	20.6716	11.0161	0.502622	0.00163774
453.432	20.8864	11.02154	0.50429	0.00139852
454.208	20.8002	11.0227	0.507035	0.001521833
454.984	20.7091	11.0226	0.508317	0.001385275
455.761	20.7392	11.0245	0.509222	0.00128373
456.537	20.871	11.0295	0.512473	0.00162832
457.313	20.7256	11.0287	0.51409	0.00135702
458.09	20.6143	11.0282	0.515076	0.00167729
458.866	20.8617	11.035	0.517134	0.00126021
459.643	20.7329	11.0344	0.519866	0.001454103
460.419	20.6229	11.0342	0.520835	0.00150229
461.195	20.8179	11.041	0.522996	0.00139482
461.972	20.7247	11.04101	0.526008	0.00162347
462.748	20.6358	11.0403	0.526953	0.00125336
463.524	20.5764	11.0408	0.527607	0.0015098
464.301	20.8329	11.0468	0.529936	0.00121824
465.077	20.68187	11.0465	0.532485	0.00156072
465.854	20.5973	11.0454	0.5333752	0.00149608
466.63	20.7907	11.0512	0.534874	0.00128621
467.406	20.7126	11.0524	0.5376364	0.00143033
468.183	20.6115	11.0522	0.538749	0.001197472
468.959	20.7139	11.0547	0.539789	0.00155019
469.735	20.7874	11.0595	0.543077	0.00129805
470.512	20.6578	11.0587	0.544959	0.00159931
471.288	20.5753	11.0584	0.545871	0.00125264
472.064	20.7757	11.0639	0.548352	0.00135916
472.841	20.6321	11.0632	0.550739	0.0015011
473.617	20.5506	11.06399	0.551739	0.0013783
474.394	20.712	11.0682	0.552957	0.00158041
475.17	20.68125	11.0706	0.555557	0.00115537
475.946	20.58017	11.0692	0.556924	0.0014868
476.723	20.58931	11.0711	0.557786	0.00116775
477.499	20.7361	11.0763	0.560599	0.00157197
478.275	20.5909	11.0762	0.562674	0.00132714
479.052	20.5259	11.0758	0.563515	0.00138615
479.828	20.725	11.0816	0.565351	0.00137993
480.604	20.6164	11.0818	0.5684244	0.00123752
481.381	20.4982	11.0805	0.569648	0.00156588
482.157	20.64925	11.08507	0.570531	0.00128478
482.934	20.6557	11.0883	0.573721	0.00166731
483.71	20.5197	11.0869	0.575076	0.00120606
484.486	20.4638	11.0869	0.575775	0.00146999
485.2627	20.6956	11.0933	0.578496	0.00128848
486.039	20.551	11.0929	0.580765	0.001504225
486.815	20.4497	11.0927	0.5816288	0.00149118
487.5918	20.6886	11.0981	0.583342	0.00124756
488.368	20.5934	11.0968	0.586802	0.0014248
489.145	20.4958	11.0994	0.5881142	0.00115463
489.9209	20.5152	11.102	0.589177	0.0015688
490.697	20.63693	11.1063	0.592196	0.00130997
491.474	20.4903	11.1056	0.593983	0.00155199
492.25	20.4248	11.1054	0.594841	0.001184748
493.026	20.6245	11.112	0.5971182	0.00146394
493.803	20.5177	11.1117	0.599129	0.00112468
494.5791	20.3929	11.1109	0.600557	0.00153306
495.355	20.5998	11.116	0.601642	0.00132766
496.132	20.5337	11.1174	0.605101	0.001438941
496.9082	20.4532	11.1179	0.606469	0.00124047
497.685	20.4079	11.1178	0.6071521	0.0013393
498.461	20.5839	11.1239	0.609979	0.00142797
499.2373	20.4361	11.12274	0.611719	0.00135625
500.014	20.3423	11.1224	0.612647	0.00144842
500.79	20.6044	11.1282	0.614025	0.00119201
501.566	20.4792	11.1288	0.617541	0.00140547
502.343	20.3876	11.1285	0.618949	0.00116259
503.119	20.4974	11.1323	0.620022	0.00158552
503.896	20.5146	11.1354	0.6229	0.00129143
504.672	20.39226	11.1344	0.624638	0.00157921
505.448	20.34551	11.1354	0.625154	0.00111474
506.225	20.5208	11.1417	0.627945	0.00142835
507.001	20.3991	11.141	0.629817	0.00110347
507.777	20.2835	11.14082	0.630747	0.00155545
508.554	20.5359	11.1458	0.632488	0.00128369
509.33	20.3993	11.1465	0.635625	0.00157627
510.106	20.328	11.1467	0.636751	0.00113836
510.883	20.4324	11.1497	0.637983	0.001368
511.659	20.4883	11.1533	0.641024	0.00109735
512.436	20.3328	11.1522	0.642615	0.00148911
513.212	20.2761	11.1527	0.643471	0.00130241
513.988	20.49419	11.1582	0.645945	0.00134819
514.765	20.3197	11.1585	0.6486088	0.00119232
515.541	20.2533	11.158	0.649637	0.00125019
516.317	20.4594	11.1624	0.6511665	0.00138101
517.094	20.3779	11.16413	0.654475	0.00128399
517.87	20.2777	11.1641	0.656042	0.00144973
518.646	20.3045	11.166	0.656618	0.00107799
519.423	20.4064	11.1708	0.65945	0.00136925
520.199	20.2816	11.1692	0.661135	0.001062223
520.976	20.2089	11.17	0.662147	0.001463962
521.752	20.4365	11.1756	0.664172	0.00120371
522.528	20.29842	11.1766	0.667009	0.00150336
523.305	20.1934	11.1755	0.668108	0.00102747
524.081	20.3724	11.1794	0.669497	0.001359557
524.857	20.3296	11.182	0.672504	0.00103246
525.634	20.2337	11.182	0.6743741	0.00141933
526.41	20.1796	11.182	0.6748873	0.00122928
527.187	20.37006	11.188	0.6776197	0.00133125
527.963	20.2329	11.1876	0.679469	0.00118402
528.739	20.1365	11.1873	0.680399	0.00123737
529.516	20.3574	11.1924	0.682578	0.00134048
530.292	20.2466	11.1939	0.685238	0.001241984
531.068	20.1418	11.1935	0.686737	0.00139196
531.845	20.2982	11.1974	0.68794	0.00106582
532.621	20.27487	11.1995	0.690996	0.00131468
533.397	20.1727	11.1994	0.6921556	0.001022395
534.174	20.1288	11.2003	0.693264	0.00146309
534.9502	20.3028	11.206	0.695566	0.00115859
535.727	20.1511	11.2058	0.697801	0.00148553
536.503	20.0862	11.2043	0.698654	0.0010735
537.2793	20.2943	11.2104	0.700491	0.00129151
538.056	20.1859	11.2111	0.703588	0.001286
538.832	20.0909	11.2105	0.70475	0.00130245
539.6084	20.2061	11.2141	0.706056	0.001400263
540.385	20.233	11.2174	0.708709	0.00104012
541.161	20.1109	11.2171	0.710564	0.00134909
541.9375	20.0249	11.2169	0.7111001	0.00100426
542.714	20.24165	11.2233	0.713948	0.00145549
543.49	20.1334	11.2231	0.7159397	0.0011965
544.2666	20.0133	11.22215	0.717363	0.00152656
545.043	20.2705	11.22613	0.719638	0.00101636
545.819	20.1317	11.2254	0.722792	0.00134994
546.5957	20.3002	11.2351	0.726026	0.00109388
547.372	20.1597	11.2271	0.738437	0.001435823
548.148	20.0821	11.2419	0.743233	0.00119376
548.9248	19.982	11.2351	0.745386	0.00136795
549.701	20.0255	11.24045	0.747161	0.00112755
550.478	19.9108	11.249	0.748144	0.00127427
551.254	19.9148	11.23959	0.749109	0.00122184
552.03	19.8683	11.2473	0.749675	0.00132247
552.807	19.8077	11.2416	0.749921	0.00128077
553.583	19.8193	11.2529	0.75028	0.00123231
554.359	19.7991	11.2472	0.750893	0.00118238
555.136	19.7455	11.25179	0.7511121	0.00116096
555.912	19.759	11.2537	0.751574	0.00132546
556.688	19.7893	11.2425	0.751794	0.00122617
557.465	19.7511	11.2533	0.751842	0.00137412
558.241	19.9666	11.2579	0.752973	0.001100926
559.018	20.1305	11.2635	0.757301	0.00127199
559.794	20.02054	11.2541	0.760248	0.0010501
560.57	20.1465	11.2627	0.762496	0.00135029
561.347	20.0104	11.2637	0.76675	0.00113046
562.123	19.90802	11.2638	0.768662	0.0014256
562.899	19.8235	11.26608	0.76943	0.00103401
563.676	19.7788	11.2705	0.770062	0.001265981
564.452	19.7848	11.2695	0.770584	0.001002196
565.229	19.7433	11.27	0.7710821	0.00139999
566.005	19.8651	11.2748	0.771603	0.00113438
566.781	19.80756	11.27522	0.772566	0.00139395
567.558	19.7759	11.2748	0.773112	0.0009812722
568.334	20.0131	11.2795	0.774286	0.00126763
569.11	19.95919	11.282	0.777043	0.000902821
569.887	19.8704	11.2812	0.778653	0.00138337
570.663	19.9558	11.28406	0.779521	0.00108651
571.439	19.9177	11.291	0.787184	0.00145003
572.216	19.7844	11.28687	0.789179	0.0009571719
572.992	19.733	11.2872	0.789906	0.00122576
573.769	19.8298	11.2951	0.792015	0.000921272
574.545	19.6581	11.2919	0.792362	0.00136325
575.321	19.6245	11.2926	0.792631	0.00103908
576.098	19.9064	11.29721	0.794118	0.00133607
576.874	19.8664	11.2989	0.796566	0.000927055
577.65	19.8024	11.2979	0.797795	0.00122822
578.427	19.7723	11.3009	0.798675	0.001001229
579.203	19.9609	11.3055	0.805862	0.00134439
579.979	19.7276	11.30329	0.809031	0.00106222
580.756	19.6956	11.30575	0.810356	0.001303158
581.532	19.65209	11.3102	0.811228	0.00100309
582.309	19.641	11.3093	0.811858	0.00112997
583.085	19.5913	11.3096	0.812146	0.00109856
583.861	19.8104	11.314	0.813058	0.00130907
584.6377	19.59231	11.3163	0.817961	0.00119986
585.414	19.55069	11.3169	0.818876	0.001150071
586.19	19.5812	11.31823	0.819127	0.00106296
586.9668	19.7986	11.3132	0.82475	0.00113538
587.743	19.7092	11.31547	0.826872	0.00124014
588.52	19.5966	11.3202	0.828066	0.00118271
589.2959	19.598	11.3269	0.828631	0.00120712
590.072	19.5815	11.3276	0.829184	0.00100457
590.849	19.5509	11.3276	0.829873	0.00113181
591.625	19.9201	11.336	0.831012	0.000965287
592.401	19.6652	11.3336	0.833306	0.0013592
593.178	19.6163	11.3338	0.8344093	0.00112533
593.9541	19.669	11.3358	0.835002	0.001359202
594.73	19.7645	11.3402	0.837593	0.000956043
595.507	19.6554	11.3388	0.839235	0.00120699
596.2832	19.6276	11.3404	0.840091	0.000862608
597.06	19.7433	11.3451	0.843187	0.00131284
597.836	19.6647	11.3452	0.845043	0.00104545
598.6123	19.5491	11.3443	0.84601	0.00137499
599.389	19.7674	11.3511	0.847888	0.00090758
600.165	19.6375	11.3498	0.850801	0.0011847
600.941	19.5749	11.3503	0.851985	0.000820229
601.718	19.674	11.3545	0.85324	0.00130892
602.494	19.6723	11.3571	0.855955	0.00103643
603.271	19.5773	11.3563	0.857446	0.00133778
604.047	19.5248	11.35775	0.858304	0.000849709
604.823	19.7202	11.363	0.861105	0.00117543
605.6	19.5823	11.3622	0.863246	0.000883288
606.376	19.472	11.3624	0.86428	0.0013046
607.152	19.6699	11.36779	0.866308	0.000982978
607.929	19.5588	11.3684	0.868859	0.00124827
608.705	19.4532	11.36765	0.86995	0.00083102
609.481	19.6426	11.3719	0.871513	0.001083689
610.258	19.5786	11.3742	0.874267	0.000966566
611.034	19.4977	11.3746	0.875875	0.001269317
611.811	19.5098	11.3759	0.876797	0.00107584
612.587	19.6307	11.3806	0.879745	0.00109762
613.363	19.486	11.3793	0.881748	0.000992166
614.14	19.40729	11.3796	0.882721	0.00104019
614.916	19.5968	11.3851	0.884927	0.00106899
615.692	19.4813	11.3851	0.887341	0.00118978
616.469	19.3571	11.385	0.888602	0.00108104
617.245	19.5615	11.3898	0.890091	0.00102758
618.021	19.4831	11.391	0.892886	0.00101632
618.798	19.4006	11.3911	0.894108	0.00102644
619.574	19.4705	11.3935	0.895069	0.00114077
620.351	19.53351	11.3976	0.898696	0.001130866
621.127	19.4147	11.3966	0.900759	0.00109028
621.903	19.3302	11.39739	0.901665	0.000963381
622.68	19.5049	11.4033	0.904156	0.00101825
623.456	19.387	11.403	0.905924	0.000979894
624.232	19.3024	11.4025	0.906872	0.00112034
625.009	19.48237	11.4074	0.908755	0.001101061
625.785	19.4071	11.409	0.9111172	0.00112056
626.562	19.3004	11.409	0.912675	0.0009326369
627.338	19.4553	11.4118	0.913932	0.00103657
628.114	19.4198	11.4146	0.917316	0.000911295
628.891	19.3154	11.41456	0.918808	0.00120282
629.667	19.2559	11.4155	0.919754	0.00101372
630.443	19.4248	11.4205	0.922169	0.0012039
631.22	19.3226	11.4201	0.923947	0.000819059
631.996	19.2155	11.4199	0.924879	0.00105213
632.772	19.4435	11.4255	0.927038	0.00077098
633.549	19.3068	11.4254	0.9297905	0.00123056
634.3252	19.2143	11.4257	0.931252	0.000931346
635.102	19.3823	11.4299	0.932643	0.0012512
635.878	19.3244	11.4322	0.935489	0.00081787
636.6543	19.2427	11.4321	0.9375605	0.00107498
637.431	19.2453	11.43329	0.938361	0.000720602
638.207	19.3369	11.4379	0.940895	0.0011985
638.9834	19.2446	11.4367	0.943038	0.000589557
639.76	19.1421	11.4373	0.944049	0.00122102
640.536	19.3448	11.4429	0.945968	0.000742032
641.3125	19.2337	11.4429	0.948182	0.00101235
642.089	19.1605	11.4433	0.9503	0.000994876
642.865	19.292	11.4472	0.951613	0.000741058
643.6416	19.2358	11.4488	0.954221	0.00105945
644.418	19.1581	11.4487	0.956022	0.000912929
645.194	19.1744	11.45021	0.956738	0.000694677
645.9707	19.249	11.4547	0.959693	0.000454461
646.747	19.1589	11.4548	0.961333	0.000829814
647.523	19.1036	11.4559	0.962243	0.000575495
648.2998	19.2577	11.4609	0.964613	0.00119177
649.076	19.1568	11.4605	0.96704	0.0004112462
649.853	19.0138	11.4596	0.968355	0.0010283
650.629	19.2401	11.4653	0.969994	0.000688814
651.405	19.1328	11.4664	0.972592	0.00113895
652.182	19.0453	11.4652	0.97404	0.000547202
652.958	19.1562	11.4695	0.975013	0.000869428
653.734	19.1462	11.4718	0.977877	0.000401739
654.511	19.0715	11.4719	0.979474	0.000964235
655.287	19.0531	11.4739	0.980299	0.000395689
656.063	19.1672	11.4777	0.98351	0.00112252
656.84	19.0631	11.4775	0.985211	0.0008212204
657.616	18.9435	11.4775	0.986573	0.000799781
658.393	19.1445	11.4837	0.988576	0.000350952
659.169	19.0418	11.4839	0.990842	0.0006968205
659.945	18.9526	11.48313	0.991966	0.000376218
660.722	19.1056	11.4872	0.993501	0.000819334
661.498	19.0286	11.4889	0.996271	0.00055273
662.274	19.0133	11.48912	0.998125	0.000768873
663.051	19.0198	11.4917	0.999264	0.000377439
663.827	19.0624	11.4949	1.00207	0.000617613
664.604	19.0096	11.49471	1.00386	0.000418704
665.38	18.8886	11.4955	1.00483	0.00076081
666.156	19.0551	11.5002	1.00721	0.0005507936
666.933	18.9769	11.5002	1.00935	0.000997894
667.709	18.8693	11.4999	1.01059	0.000751229
668.485	19.0394	11.505	1.01242	0.000573903
669.262	18.9628	11.5064	1.01519	0.000892349
670.038	18.86458	11.50659	1.01675	0.00092028
670.814	18.95775	11.5096	1.017959	0.00064359
671.591	18.9609	11.5114	1.02098	0.000738674
672.367	18.9161	11.5128	1.02281	0.000593351
673.144	18.8327	11.5133	1.023684	0.000697995
673.92	18.9629	11.5175	1.02652	0.00108196
674.696	18.8808	11.518	1.02797	0.000806584
675.473	18.8048	11.5183	1.02922	0.000781039
676.249	18.95043	11.5233	1.031585	0.000392603
677.025	18.8816	11.5232	1.03381	0.000658768
677.802	18.7552	11.5234	1.03537	0.000331815
678.578	18.9073	11.52787	1.03693	0.000764959
679.354	18.8597	11.52903	1.03997	0.000468314
680.131	18.78019	11.5294	1.042109	0.0006859951
680.907	18.8197	11.5316	1.04321	0.000419127
681.684	18.831	11.534	1.04542	0.000534389
682.46	18.7858	11.5346	1.04692	0.000656692
683.236	18.7256	11.5357	1.04789	0.0005809124
684.0127	18.8662	11.5407	1.05032	0.000696123
684.789	18.7598	11.5407	1.05236	0.000386835
685.565	18.67737	11.541	1.05325	0.000588337
686.3418	18.8503	11.5461	1.0554	0.000305106
687.118	18.791	11.5459	1.05794	0.000744344
687.895	18.6658	11.5468	1.05974	0.000465935
688.6709	18.7848	11.5491	1.06103	0.000818614
689.447	18.7323	11.551	1.06369	0.000357677
690.224	18.691	11.5526	1.06522	0.000610869
691	18.7184	11.55458	1.06644	0.0003412707
691.776	18.7579	11.5573	1.06899	0.000738803
692.553	18.7082	11.5588	1.0707	0.0004502965
693.3291	18.62159	11.5584	1.072	0.000502852
694.105	18.763	11.5623	1.07441	0.000419222
694.882	18.6876	11.5642	1.07677	0.000412459
695.6582	18.5647	11.5633	1.07838	0.000654877
696.435	18.6938	11.5676	1.07988	0.000441028
697.211	18.6797	11.5685	1.0823	0.000706156
697.9873	18.5647	11.5694	1.084079	0.000266937
698.764	18.6443	11.5723	1.08505	0.000590289
699.54	18.6104	11.5731	1.08738	0.000246096
700.316	18.58436	11.575	1.08905	0.000736432
701.093	18.5537	11.5763	1.08988	0.000761372
701.869	18.6751	11.5799	1.09261	0.000610018
702.646	18.6132	11.5814	1.09509	0.000348778
703.422	18.4937	11.5811	1.09638	0.000469588
704.198	18.6172	11.585	1.09858	0.000460807
704.975	18.5898	11.58621	1.10096	0.00055873
705.751	18.4434	11.5862	1.10245	0.000577769
706.527	18.5774	11.5904	1.10397	0.000365058
707.304	18.54	11.5914	1.10612	0.000757199
708.08	18.4729	11.5922	1.10829	0.000360687
708.856	18.5336	11.5948	1.10928	0.0006414263
709.633	18.5378	11.597	1.11221	0.000446594
710.409	18.4933	11.5989	1.11441	0.000917534
711.186	18.4383	11.5994	1.11555	0.000358993
711.962	18.5192	11.6025	1.11781	0.000506296
712.738	18.4893	11.6042	1.11957	0.000303901
713.515	18.3801	11.604	1.12117	0.000658845
714.291	18.4841	11.608	1.12296	0.000431559
715.067	18.4763	11.6085	1.12505	0.000644408
715.844	18.3304	11.6089	1.12647	0.0002831186
716.62	18.4847	11.6124	1.12818	0.00051181
717.396	18.4455	11.6137	1.13057	0.000312532
718.173	18.351	11.6142	1.13314	0.000700043
718.949	18.3702	11.61723	1.13394	0.000458493
719.726	18.4137	11.6195	1.1364	0.00069921
720.502	18.4873	11.6239	1.13921	0.000305011
721.278	18.2364	11.6219	1.14065	0.000532943
722.055	18.3506	11.6251	1.14224	0.000294943
722.831	18.3304	11.62713	1.14565	0.000730093
723.607	18.1867	11.6266	1.14639	0.000421302
724.384	18.3379	11.6303	1.14806	0.000694271
725.16	18.35181	11.6313	1.14974	0.000326894
725.937	18.2296	11.6323	1.15134	0.000528097
726.713	18.3268	11.6358	1.15287	0.000336302
727.489	18.3104	11.6365	1.15505	0.000670658
728.266	18.2609	11.6382	1.15717	0.000422355
729.042	18.27742	11.6407	1.158149	0.000703175
729.818	18.2863	11.6419	1.16042	0.000285524
730.595	18.2638	11.6441	1.16258	0.000532689
731.371	18.167	11.6441	1.16326	0.000247415
732.147	18.2976	11.6478	1.16596	0.000645247
732.924	18.29241	11.6498	1.16847	0.0004213865
733.7002	18.0836	11.6482	1.17003	0.000701062
734.477	18.2565	11.653	1.17182	0.000256102
735.253	18.2384	11.654	1.17388	0.000543895
736.0293	18.10063	11.6548	1.17527	0.000178839
736.806	18.2051	11.6581	1.177	0.0006736127
737.582	18.162	11.6589	1.17902	0.000375847
738.3584	18.121	11.66	1.18096	0.000899144
739.135	18.2184	11.6642	1.182125	0.000303771
739.911	18.1692	11.6643	1.185106	0.000453378
740.6875	18.1452	11.6668	1.18762	0.000483093
741.464	18.0684	11.667	1.18858	0.0004415907
742.24	18.142	11.6704	1.19109	0.000533378
743.0166	18.1435	11.6726	1.19307	0.000292893
743.793	17.9748	11.6712	1.19437	0.0004548092
744.569	18.1303	11.676	1.19619	0.000253614
745.3457	18.0991	11.6765	1.19802	0.000614099
746.122	17.9709	11.6767	1.19972	0.000344764
746.898	18.1202	11.6814	1.20142	0.000671349
747.6748	18.1063	11.6824	1.20403	0.000217987
748.451	17.9592	11.6828	1.20631	0.000523974
749.228	18.0258	11.6856	1.2071	0.000210467
750.004	18.0314	11.6875	1.20964	0.000605477
750.78	17.9922	11.68975	1.212034	0.000422071
751.557	17.906	11.6906	1.21273	0.000529582
752.333	18.0196	11.693	1.21467	0.000303896
753.109	18.0357	11.6945	1.21691	0.000421506
753.886	17.8545	11.6943	1.21821	0.000467676
754.662	18.0303	11.6988	1.2206	0.000445432
755.438	17.9828	11.7001	1.2227	0.000552712
756.215	17.8556	11.7003	1.22377	0.000295032
756.991	17.9797	11.7043	1.22568	0.000435084
757.768	17.9334	11.705	1.227823	0.000276536
758.544	17.835	11.7054	1.22977	0.000592291
759.32	17.9552	11.709	1.23094	0.0003281479
760.097	17.8832	11.7104	1.23332	0.000664913
760.873	17.8795	11.71187	1.23554	0.000231727
761.649	17.8547	11.7129	1.2364	0.000470336
762.426	17.8978	11.7162	1.23942	0.0001787544
763.202	17.88	11.7175	1.24157	0.000616284
763.979	17.74324	11.7169	1.24277	0.0003098381
764.755	17.8995	11.722	1.245348	0.000574712
765.531	17.8384	11.723	1.247314	0.000211732
766.308	17.7162	11.7216	1.24887	0.000384994
767.084	17.8543	11.7273	1.25043	0.00038143
767.86	17.8062	11.7279	1.252867	0.00048211
768.637	17.69343	11.7281	1.2551	0.000504895
769.413	17.8388	11.732	1.25621	0.000280723
770.189	17.7649	11.7335	1.258657	0.000447936
770.966	17.7183	11.7341	1.261085	0.00021197
771.742	17.6946	11.73568	1.26178	0.000593609
772.519	17.748	11.7388	1.26418	0.000323844
773.295	17.742	11.74042	1.26636	0.000638929
774.071	17.5901	11.7403	1.267194	0.000194164
774.848	17.7464	11.74489	1.2694	0.000492077
775.624	17.7023	11.7452	1.27133	0.0001566376
776.4	17.54085	11.7449	1.27289	0.000640907
777.177	17.73967	11.7508	1.27507	0.000352298
777.953	17.6625	11.7504	1.27781	0.000591265
778.729	17.5303	11.7503	1.279317	0.000234901
779.506	17.6916	11.75456	1.28082	0.000464248
780.282	17.6156	11.7556	1.28341	0.000268239
781.059	17.5521	11.7567	1.28521	0.000528116
781.835	17.6263	11.7602	1.28635	0.000393708
782.611	17.5999	11.7615	1.2892	0.00036269
783.3877	17.5598	11.7628	1.29093	0.000341347
784.164	17.4788	11.7629	1.29182	0.000322107
784.94	17.5838	11.7673	1.29463	0.000505654
785.7168	17.551	11.7683	1.29671	0.000371152
786.493	17.39329	11.7685	1.29762	0.0005172831
787.27	17.57527	11.77288	1.30001	0.000195647
788.0459	17.4884	11.7731	1.30217	0.000447848
788.822	17.3765	11.7738	1.30372	0.000156646
789.599	17.5535	11.7775	1.30532	0.000557757
790.375	17.4453	11.7788	1.30803	0.000250074
791.151	17.3739	11.7789	1.30956	0.000609932
791.928	17.4942	11.7832	1.31102	0.000154522
792.7041	17.4054	11.7839	1.31386	0.000472171
793.48	17.3714	11.7845	1.31557	0.000175493
794.257	17.3708	11.7865	1.316627	0.000593325
795.0332	17.39665	11.7902	1.3196	0.000316422
795.81	17.3566	11.7905	1.32145	0.000414502
796.586	17.22752	11.7908	1.32246	0.000239561
797.3623	17.416	11.7954	1.32476	0.0003161091
798.139	17.3004	11.7947	1.32732	0.000361896
798.915	17.1857	11.7955	1.32853	0.000379354
799.691	17.3832	11.8006	1.33061	0.000454517
800.468	17.2855	11.8007	1.33339	0.000182181
801.244	17.1538	11.8008	1.33522	0.000418716
802.021	17.297	11.8057	1.33631	0.000221694
802.797	17.2285	11.8062	1.33892	0.000540442
803.573	17.1627	11.8077	1.34076	0.000249386
804.35	17.2036	11.8093	1.34157	0.00053053
805.126	17.2366	11.8128	1.34494	0.0001189148
805.902	17.1992	11.81252	1.3469	0.000431755
806.679	17.0478	11.8131	1.348003	0.00010262
807.455	17.2055	11.8183	1.35105	0.000488905
808.231	17.092	11.8182	1.35324	0.000238409
809.008	16.9707	11.8179	1.35443	0.000466617
809.784	17.1492	11.8235	1.356544	9.91507e-05
810.561	17.0649	11.8237	1.35902	0.000358766
811.337	16.9164	11.823	1.36046	0.000225367
812.113	17.1352	11.8285	1.36215	0.00040924
812.89	17.0076	11.829	1.36568	0.000286159
813.666	16.8932	11.829	1.36753	0.000275895
814.442	16.979	11.833	1.36837	0.0002625004
815.219	16.93256	11.8345	1.37157	0.0002281648
815.995	16.9066	11.8361	1.37358	0.000377109
816.771	16.8283	11.8363	1.37419	0.000269994
817.548	16.9161	11.8409	1.37757	0.000424565
818.324	16.8349	11.8413	1.37933	0.000117724
819.101	16.6972	11.8397	1.38059	0.00035577
819.877	16.8698	11.8467	1.38368	0.000113764
820.653	16.7378	11.8462	1.38613	0.00049306
821.43	16.5804	11.8463	1.38759	0.000236099
822.206	16.7791	11.8517	1.38978	0.000427178
822.982	16.6461	11.8518	1.39246	6.845234e-05
823.759	16.5059	11.852	1.39429	0.000392245
824.535	16.6491	11.8556	1.39584	7.4263e-05
825.312	16.224	11.8575	1.40348	0.000485314
826.088	15.9389	11.8577	1.4081	0.000183846
826.864	15.8047	11.8601	1.41125	0.000481684
827.641	14.359	11.8635	1.43403	0.0001013338
828.417	14.154	11.86435	1.43919	0.000357716
829.193	13.997	11.8641	1.44073	5.58092e-05
829.97	14.0132	11.86965	1.44511	0.0004238144
830.746	13.8431	11.8684	1.448276	0.000230728
831.522	13.6582	11.8694	1.45024	0.000280588
832.299	13.74822	11.875	1.45383	0.00011544
833.0752	13.5309	11.875	1.45775	0.000222473
833.852	13.351	11.8739	1.4603	0.000246935
834.628	13.4396	11.8797	1.46273	0.000271232
835.4043	13.1174	11.8807	1.4694	0.000265858
836.181	12.886	11.88	1.47268	0.000160407
836.957	12.99423	11.8837	1.47439	0.000202092
837.7334	12.6814	11.8854	1.481304	0.000109359
838.51	12.5493	11.8862	1.48474	0.000350597
839.286	12.5158	11.8876	1.48588	0.000218199
840.0625	12.3434	11.8908	1.4923	0.000358529
840.839	12.1415	11.8921	1.49736	7.10716e-05
841.615	11.9985	11.8916	1.49939	0.000247525
842.3916	11.9932	11.8965	1.503294	4.50338e-05
843.168	11.7751	11.8976	1.50754	0.000432817
843.944	11.5551	11.89603	1.50999	0.0001746538
844.7207	11.5728	11.9027	1.514039	0.000445159
845.497	11.29819	11.90201	1.51976	3.98797e-05
846.273	11.0601	11.9018	1.52269	0.000326222
847.0498	11.1402	11.90666	1.524979	-1.75211e-05
847.826	10.726	11.9082	1.53337	0.000399741
848.603	10.5121	11.9083	1.53687	0.000157363
849.379	10.4972	11.9112	1.5388	0.000400804
850.155	9.83841	11.913	1.55213	4.75062e-05
850.932	9.6673	11.9142	1.55575	0.000236076
851.708	9.57555	11.915	1.55765	0.000148785
852.484	8.9881	11.919	1.570442	0.000230519
853.261	8.682272	11.9196	1.57634	0.000263918
854.037	8.31541	11.9189	1.582062	4.165648e-05
854.813	7.39576	11.9259	1.59794	0.00020767
855.59	0.596817	11.9233	1.78588	0.00027192
856.366	0.576311	11.9231	1.7872	0.000679533
857.143	0.637234	11.93	1.79245	0.00034751
857.919	0.580655	11.9289	1.79646	0.000688221
858.695	0.571653	11.9294	1.79964	0.000285751
859.472	-0.0395208	11.9348	2.56201	0.0005137
860.248	-0.0153039	11.935	0.958091	0.000163041
861.024	-0.032675	11.93576	0.60056	0.000234557
861.801	-0.01273453	11.9413	0.857158	0.000291406
862.577	-0.029247	11.9403	1.1547	4.16598e-05
863.354	-0.0226659	11.9419	0.792234	0.000225898
863.881	-0.0154735	11.9404	0.754076	0.000275895