File: shares/flx_lsms_hydrogen/EXPERIMENTAL_DATA/LABO_SOETE/WP1_TENSILE/H2_HC1/MTS/LYA5/specimen.dat
MTS793|MPT|ENU|1|2|.|/|:|1|0|0|A

Data Acquisition						Time:	15.0195	s	1/19/2022 2:03:24 PM
Time	ESH B Force	ESH B Displacement	Analog In 2	Analog In 1
s	kN	mm	V	V
0.0332031	0.02639891	-19.9995	-0.0699026	0.00588862
0.707031	0.0255401	-19.9967	-0.0698679	0.00581173
1.38086	0.021803	-19.9895	-0.0698253	0.00590699
2.05469	0.0179057	-19.9811	-0.0698424	0.00596987
2.72852	0.0104872	-19.9733	-0.06954214	0.0057974
3.40234	0.00828582	-19.9686	-0.0695475	0.00592439
4.07617	0.0147499	-19.9616	-0.0695265	0.00597152
4.75	0.0166419	-19.9533	-0.0698715	0.0057744
5.42383	0.0241085	-19.945	-0.0695191	0.00594573
6.09766	0.0274548	-19.9399	-0.0695154	0.00588886
6.77148	0.0261686	-19.9335	-0.0696036	0.00573708
7.44531	0.0249807	-19.9268	-0.0695269	0.00585751
8.11914	0.0202037	-19.9182	-0.06957715	0.005793307
8.79297	0.0170232	-19.9122	-0.0695773	0.00563459
9.4668	0.0154031	-19.9059	-0.0695601	0.00569603
10.1406	0.0150713	-19.8986	-0.0695636	0.00568378
10.8145	0.01598357	-19.8919	-0.0696471	0.005527026
11.4883	0.0156361	-19.8857	-0.0695665	0.00551475
12.1621	0.0216757	-19.8784	-0.0695686	0.00561276
12.8359	0.0254824	-19.872	-0.0696283	0.00551223
13.5098	0.0245145	-19.86544	-0.0692964	0.0054739
14.1836	0.0265896	-19.85817	-0.0693069	0.005604
14.8574	0.0242346	-19.8515	-0.069609	0.0055305
15.53125	0.0231254	-19.8455	-0.0693191	0.005508699
16.2051	0.0214899	-19.8372	-0.0695772	0.00571005
16.8789	0.0203858	-19.8313	-0.0696262	0.005560589
17.5527	0.0266232	-19.8251	-0.0692518	0.00559633
18.2266	0.0343145	-19.819	-0.0692461	0.005771888
18.9004	0.0443347	-19.8108	-0.0692527	0.00563219
19.5742	0.0537413	-19.8044	-0.06926316	0.00570952
20.248	0.0677762	-19.798	-0.0692416	0.00606424
20.9219	0.07504908	-19.7913	-0.0692441	0.00616152
21.5957	0.0830468	-19.7839	-0.0692163	0.00604803
22.2695	0.0929474	-19.778	-0.0689734	0.00618823
22.9434	0.110646	-19.77076	-0.0689604	0.0062567
23.6172	0.120164	-19.7648	-0.0690025	0.00609574
24.291	0.141083	-19.7574	-0.068967	0.00656324
24.9648	0.1652181	-19.7516	-0.0687181	0.00657399
25.6387	0.189695	-19.7448	-0.0687013	0.00643936
26.3125	0.209546	-19.7372	-0.0686932	0.00655126
26.9863	0.235846	-19.7303	-0.0684582	0.00686323
27.6602	0.2587187	-19.7235	-0.0684521	0.00669922
28.334	0.2813791	-19.7173	-0.0680543	0.006835483
29.0078	0.309291	-19.71	-0.0681079	0.00678016
29.6816	0.333249	-19.7028	-0.0678357	0.00688283
30.3555	0.364432	-19.6965	-0.067806	0.00700362
31.0293	0.403142	-19.6904	-0.06752421	0.00696577
31.7031	0.445716	-19.68313	-0.0675584	0.00712741
32.377	0.494535	-19.6759	-0.0672495	0.00742374
33.0508	0.5427447	-19.6703	-0.0669519	0.00751139
33.7246	0.605205	-19.6637	-0.0666347	0.00765334
34.3984	0.650224	-19.6578	-0.0661947	0.00793876
35.0723	0.729348	-19.6497	-0.0659342	0.00838439
35.7461	0.809955	-19.6431	-0.0656916	0.00859354
36.4199	0.910905	-19.6368	-0.0653431	0.00919746
37.09375	1.02437	-19.6304	-0.0647311	0.00961608
37.7676	1.12165	-19.6227	-0.0645144	0.01013816
38.4414	1.247224	-19.6165	-0.0638854	0.0104818
39.1152	1.38674	-19.60943	-0.0631979	0.0111913
39.7891	1.52064	-19.6026	-0.0629125	0.0114161
40.4629	1.65874	-19.5954	-0.0620333	0.0124218
41.1367	1.77834	-19.5897	-0.0613116	0.0128968
41.8105	1.95712	-19.5827	-0.0606622	0.01351026
42.4844	2.09161	-19.576	-0.0601627	0.01402957
43.1582	2.24292	-19.5687	-0.0595002	0.0148089
43.832	2.39527	-19.5621	-0.0589409	0.0157397
44.5059	2.53047	-19.5542	-0.0580771	0.0161923
45.1797	2.752789	-19.5475	-0.0571382	0.0172326
45.8535	2.93696	-19.5408	-0.0564495	0.0175298
46.5273	3.16226	-19.5341	-0.0555895	0.0182032
47.2012	3.33756	-19.5267	-0.0549928	0.0191641
47.875	3.50516	-19.5198	-0.0540669	0.0197494
48.5488	3.65743	-19.5141	-0.0535287	0.02018095
49.2227	3.86754	-19.5075	-0.05258042	0.0210705
49.8965	4.0946	-19.4994	-0.0515836	0.0221263
50.5703	4.24611	-19.4937	-0.0507003	0.0226736
51.2441	4.41229	-19.4882	-0.0501437	0.0235609
51.918	4.68481	-19.4814	-0.0488827	0.0246525
52.5918	4.93788	-19.4727	-0.0480356	0.0254129
53.2656	5.12863	-19.4658	-0.0471252	0.0263678
53.9395	5.25473	-19.4608	-0.0463165	0.0271744
54.6133	5.54216	-19.454	-0.04509471	0.028034
55.2871	5.789885	-19.4463	-0.043969	0.029248
55.9609	5.97545	-19.4392	-0.0430157	0.0303362
56.6348	6.14228	-19.4345	-0.0421324	0.0309926
57.3086	6.42698	-19.4272	-0.0411654	0.03202885
57.9824	6.69758	-19.4193	-0.0396261	0.0333778
58.65625	6.91384	-19.413	-0.0386758	0.034274
59.3301	7.10767	-19.40733	-0.037889	0.0347189
60.0039	7.43937	-19.4002	-0.0362508	0.036343
60.6777	7.68834	-19.3935	-0.0353847	0.0375471
61.3516	7.91994	-19.3864	-0.0342072	0.03827139
62.0254	8.11647	-19.3804	-0.0333071	0.03918647
62.6992	8.44436	-19.37352	-0.0317596	0.0408189
63.373	8.70976	-19.3661	-0.03055826	0.0418188
64.0469	8.96789	-19.3594	-0.0293496	0.0427191
64.7207	9.1836	-19.3529	-0.0280925	0.0441133
65.3945	9.51622	-19.3461	-0.0265027	0.0451719
66.0684	9.81387	-19.3395	-0.0253826	0.0467321
66.7422	10.0635	-19.332	-0.0238134	0.048084
67.416	10.2715	-19.3261	-0.0230479	0.0489058
68.0898	10.6381	-19.3195	-0.0214535	0.0504234
68.7637	10.8857	-19.313	-0.0198647	0.0520016
69.4375	11.1591	-19.3051	-0.0187012	0.0530931
70.1113	11.369	-19.2993	-0.0173926	0.0540664
70.7852	11.83964	-19.2906	-0.014653	0.0569799
71.459	12.0372	-19.2853	-0.0135106	0.0581565
72.1328	12.2281	-19.2787	-0.013213	0.0587491
72.8066	12.5077	-19.2729	-0.01155	0.06014023
73.4805	12.8437	-19.2651	-0.009591165	0.06194929
74.1543	13.0932	-19.2592	-0.00800696	0.0633452
74.8281	13.3478	-19.252	-0.00659252	0.0650146
75.502	13.5554	-19.2467	-0.005168682	0.0666253
76.1758	13.8775	-19.238	-0.00341165	0.0682896
76.8496	14.0837	-19.232	-0.00154428	0.070287
77.5234	14.3422	-19.2246	0.000210772	0.0721173
78.1973	14.5671	-19.2186	0.00206827	0.0738028
78.8711	14.8223	-19.2114	0.0039028	0.0759961
79.5449	14.9892	-19.20516	0.00624459	0.07849782
80.21875	15.1712	-19.1988	0.00840319	0.08047533
80.8926	15.3479	-19.19175	0.01055658	0.08338505
81.5664	15.4725	-19.1843	0.0139362	0.08667922
82.2402	15.5553	-19.1785	0.0162987	0.0895859
82.9141	15.6531	-19.1714	0.0191201	0.0930071
83.5879	15.7364	-19.165	0.02161485	0.0961194
84.2617	15.8005	-19.1566	0.0245396	0.100266
84.9355	15.8058	-19.1511	0.0276339	0.104427
85.6094	15.8807	-19.1443	0.0300059	0.1087542
86.2832	15.8942	-19.1379	0.0324709	0.112827
86.957	15.9388	-19.1298	0.0354873	0.1177793
87.6309	15.891	-19.1239	0.0382728	0.122993
88.3047	15.948	-19.1162	0.0403615	0.127447
88.9785	15.9514	-19.1112	0.0431437	0.132029
89.6523	15.97197	-19.1029	0.0459339	0.137689
90.3262	15.9609	-19.0968	0.0483728	0.142764
91	15.9587	-19.08902	0.0511321	0.147304
91.6738	16.0068	-19.0839	0.05353909	0.152005
92.3477	16.0162	-19.0765	0.0566219	0.157737
93.0215	15.99262	-19.0701	0.0587589	0.162609
93.6953	15.9975	-19.0636	0.0618747	0.167637
94.3691	16.0279	-19.0565	0.0648655	0.172621
95.043	16.0336	-19.0497	0.0681914	0.177887
95.7168	16.0349	-19.0426	0.0716695	0.183233
96.3906	16.0251	-19.0357	0.0745586	0.187971
97.0645	16.0504	-19.03	0.07792972	0.1931648
97.7383	16.0648	-19.02198	0.0817349	0.198827
98.4121	16.05731	-19.016	0.08508198	0.203537
99.0859	16.0425	-19.0082	0.0886583	0.208481
99.7598	16.0973	-19.0029	0.0920768	0.213475
100.434	16.1079	-18.9956	0.0966817	0.219252
101.107	16.0842	-18.9896	0.1002197	0.224079
101.781	16.0758	-18.9826	0.104207	0.228806
102.455	16.0985	-18.9752	0.107863	0.233784
103.129	16.1162	-18.968	0.112476	0.238835
103.803	16.1133	-18.9622	0.1165083	0.243607
104.477	16.0847	-18.9555	0.120479	0.248109
105.15	16.1223	-18.9486	0.124704	0.252245
105.824	16.143	-18.9416	0.129295	0.257579
106.498	16.15851	-18.9352	0.133482	0.261878
107.172	16.129	-18.9286	0.137696	0.2662507
107.8457	16.1405	-18.9228	0.142409	0.270883
108.52	16.1649	-18.9146	0.147201	0.275448
109.193	16.1424	-18.908	0.151519	0.2793133
109.867	16.13924	-18.9024	0.156213	0.283649
110.541	16.1712	-18.8958	0.1608	0.287899
111.215	16.1872	-18.88855	0.16566	0.291983
111.889	16.2044	-18.8814	0.169938	0.295685
112.5625	16.189	-18.8751	0.174499	0.299326
113.236	16.201	-18.8687	0.179362	0.303503
113.91	16.2037	-18.8607	0.184537	0.307395
114.584	16.2252	-18.8546	0.188585	0.310969
115.258	16.0541	-18.8455	0.196359	0.316674
115.932	16.1646	-18.8413	0.1987973	0.318735
116.605	16.0738	-18.8344	0.205206	0.323685
117.2793	16.2255	-18.8267	0.20797	0.325734
117.953	16.2205	-18.821	0.212547	0.329155
118.627	16.25108	-18.81461	0.217198	0.332657
119.301	16.2581	-18.8076	0.222307	0.336195
119.975	16.2737	-18.8007	0.22694	0.339267
120.648	16.2596	-18.7942	0.23154	0.342766
121.322	16.3138	-18.7866	0.236428	0.346145
121.996	16.2738	-18.7809	0.241376	0.349458
122.67	16.3485	-18.7725	0.245826	0.352382
123.344	15.9703	-18.7669	0.254692	0.3582662
124.018	16.1683	-18.7599	0.25661	0.359593
124.691	16.2918	-18.7539	0.260911	0.3627691
125.365	16.2482	-18.747	0.266187	0.366469
126.039	16.2943	-18.7388	0.271546	0.369937
126.713	16.335	-18.7329	0.274613	0.372219
127.387	16.3328	-18.7268	0.279503	0.37558
128.061	16.3553	-18.7192	0.284052	0.378472
128.734	16.3566	-18.7129	0.288066	0.3813476
129.4082	16.39345	-18.7085	0.294113	0.385593
130.082	16.33955	-18.6993	0.2979773	0.388183
130.756	16.38727	-18.6921	0.3023203	0.391695
131.43	16.413	-18.68602	0.306586	0.39469
132.104	16.43133	-18.679	0.310906	0.397857
132.777	16.4088	-18.67215	0.316065	0.401883
133.451	16.4394	-18.665	0.3209	0.405248
134.125	16.4432	-18.6589	0.3246178	0.408165
134.799	16.6249	-18.6753	0.329255	0.411802
135.473	16.2667	-18.6461	0.335383	0.4165327
136.146	16.4267	-18.6386	0.33832	0.419159
136.82	16.4507	-18.632	0.341949	0.422108
137.494	16.4965	-18.6257	0.346393	0.425975
138.168	16.4806	-18.6196	0.351165	0.429493
138.8418	16.4824	-18.6117	0.355458	0.433183
139.516	16.5198	-18.6047	0.35953	0.437076
140.189	16.5303	-18.5991	0.364146	0.440871
140.863	16.5095	-18.5923	0.368644	0.444232
141.537	16.5057	-18.5843	0.372573	0.448347
142.211	16.5597	-18.5779	0.376302	0.451435
142.885	16.5517	-18.57032	0.381398	0.45601
143.559	16.5781	-18.5619	0.386346	0.460428
144.232	16.5158	-18.557	0.39005	0.464052
144.906	16.5595	-18.5513	0.393283	0.466883
145.58	16.5742	-18.5411	0.399194	0.472457
146.254	16.5556	-18.5382	0.402579	0.475383
146.928	16.5719	-18.5311	0.406405	0.478901
147.602	16.6031	-18.5212	0.4110716	0.482919
148.275	16.59828	-18.5178	0.414753	0.48669
148.949	16.6215	-18.5115	0.418686	0.490154
149.623	16.5979	-18.5047	0.423004	0.494228
150.297	16.6818	-18.49	0.430531	0.501273
150.9707	16.4915	-18.4892	0.434251	0.5045175
151.645	16.5806	-18.4838	0.435762	0.50618
152.318	16.6513	-18.47649	0.440342	0.510752
152.992	16.6473	-18.4709	0.4436664	0.513313
153.666	16.68803	-18.4637	0.447972	0.517666
154.34	16.6957	-18.4574	0.451647	0.52102
155.014	16.6194	-18.4509	0.455858	0.5251478
155.6875	16.677	-18.44426	0.460087	0.52924
156.361	16.6801	-18.437	0.4644	0.533431
157.035	16.7155	-18.4296	0.468096	0.5366329
157.709	15.9749	-18.4226	0.4787651	0.547079
158.383	16.3102	-18.4177	0.479657	0.5477429
159.057	16.5803	-18.4099	0.482121	0.5500735
159.73	16.77113	-18.4003	0.485499	0.5531
160.4043	16.4826	-18.39665	0.490669	0.558163
161.078	16.7422	-18.3893	0.492983	0.560729
161.752	16.7398	-18.3831	0.4970417	0.564306
162.426	16.7628	-18.3753	0.501345	0.568483
163.1	16.7403	-18.3691	0.505346	0.572056
163.773	16.7798	-18.3631	0.509253	0.576011
164.447	16.7864	-18.3567	0.513536	0.580182
165.121	16.8168	-18.3446	0.519689	0.586293
165.795	16.7318	-18.3429	0.52207	0.58829
166.469	16.82268	-18.3358	0.525815	0.590385
167.143	16.8163	-18.3291	0.529759	0.594338
167.816	16.842	-18.32025	0.533973	0.598158
168.49	16.8038	-18.3178	0.537668	0.601967
169.164	16.8671	-18.3085	0.542275	0.606341
169.838	16.7207	-18.3015	0.547757	0.611296
170.512	16.7451	-18.2934	0.552102	0.615685
171.186	16.8347	-18.2889	0.554212	0.61771
171.859	16.9101	-18.281	0.558438	0.621881
172.5332	16.8894	-18.2745	0.562384	0.6257025
173.207	16.8844	-18.26828	0.567221	0.630296
173.881	16.9025	-18.2613	0.5706256	0.633469
174.555	16.9259	-18.2542	0.574895	0.637395
175.229	16.9068	-18.2478	0.579206	0.641651
175.902	16.8866	-18.2416	0.583458	0.645842
176.576	16.92742	-18.2349	0.587035	0.649126
177.25	16.93	-18.2277	0.591294	0.653582
177.924	16.9375	-18.221	0.595187	0.657245
178.598	16.9631	-18.2147	0.599858	0.661957
179.271	16.9605	-18.2077	0.603867	0.6658023
179.945	16.9753	-18.2004	0.608198	0.669701
180.619	16.9674	-18.1941	0.611669	0.673423
181.293	16.9674	-18.18722	0.616047	0.677834
181.9668	16.9659	-18.1805	0.620021	0.681511
182.641	16.9876	-18.1729	0.624093	0.685351
183.314	16.9965	-18.1674	0.62815	0.68924
183.988	16.9689	-18.16091	0.632386	0.693551
184.662	17.003	-18.1545	0.6362009	0.697301
185.336	16.9491	-18.1478	0.641149	0.702412
186.01	17.029	-18.1398	0.64453	0.705772
186.684	16.9666	-18.1341	0.6484738	0.709513
187.357	17.0065	-18.1276	0.65247	0.713342
188.031	17.04911	-18.12059	0.656789	0.71755
188.705	17.0653	-18.1124	0.660626	0.721059
189.379	17.0197	-18.10696	0.664541	0.725065
190.053	17.0358	-18.1	0.668575	0.728982
190.727	17.0538	-18.09203	0.67278	0.732814
191.4	17.0898	-18.0858	0.677134	0.736738
192.074	17.0682	-18.0797	0.680853	0.74055
192.748	17.0976	-18.0729	0.684654	0.744377
193.422	17.0848	-18.0663	0.689183	0.748657
194.0957	17.1086	-18.05859	0.692615	0.752478
194.77	17.1001	-18.0527	0.696958	0.756221
195.443	17.0995	-18.0459	0.700956	0.760262
196.117	17.0937	-18.03952	0.705278	0.764741
196.791	17.0775	-18.0321	0.710033	0.769231
197.465	17.1282	-18.0253	0.713023	0.772293
198.139	17.1325	-18.0188	0.71806	0.777056
198.8125	17.1102	-18.0116	0.722008	0.78111
199.486	17.1484	-18.00444	0.726575	0.785211
200.16	17.1485	-17.99889	0.729968	0.788987
200.834	17.1745	-17.9923	0.733841	0.792585
201.508	17.1291	-17.98543	0.738459	0.797108
202.182	17.1549	-17.9775	0.742473	0.8011356
202.855	17.1576	-17.9718	0.746422	0.804644
203.5293	17.1778	-17.9646	0.750383	0.80845
204.203	17.1769	-17.9584	0.754368	0.812292
204.877	17.1689	-17.9511	0.759287	0.817111
205.551	17.1835	-17.9455	0.762829	0.820627
206.225	17.1976	-17.9389	0.767121	0.824882
206.898	17.189	-17.9306	0.770831	0.828748
207.572	17.1942	-17.9247	0.775124	0.832532
208.246	17.2058	-17.9179	0.779231	0.836574
208.92	17.2243	-17.9105	0.783433	0.8410337
209.594	17.221	-17.9041	0.787309	0.845023
210.268	17.1788	-17.8978	0.791305	0.8488915
210.941	17.2247	-17.892	0.795569	0.852918
211.615	17.21541	-17.8848	0.79987	0.857417
212.289	17.243	-17.8777	0.803567	0.860588
212.963	17.2153	-17.8705	0.80775	0.864834
213.637	17.2177	-17.8646	0.811358	0.866138
214.311	17.2677	-17.857	0.816213	0.870921
214.984	17.2549	-17.8506	0.819966	0.874565
215.6582	17.2104	-17.8445	0.823959	0.878686
216.332	17.24489	-17.8372	0.827945	0.882653
217.006	17.2571	-17.8303	0.832075	0.886698
217.68	17.2907	-17.8227	0.836293	0.891088
218.354	17.2596	-17.8165	0.84032	0.895435
219.027	17.29118	-17.8104	0.843953	0.898958
219.701	17.2988	-17.8035	0.8482185	0.903352
220.375	17.319	-17.7968	0.85234	0.907181
221.049	17.3047	-17.7902	0.856481	0.911232
221.723	17.306	-17.7834	0.860303	0.915107
222.396	17.2891	-17.7773	0.864709	0.919588
223.07	17.3039	-17.7687	0.868918	0.923356
223.744	17.3152	-17.7632	0.872585	0.92701
224.418	17.3183	-17.7576	0.876983	0.931882
225.0918	17.2988	-17.7498	0.881179	0.935798
225.766	17.3363	-17.7421	0.885347	0.9400931
226.439	17.3425	-17.7355	0.889101	0.943988
227.113	17.3647	-17.7293	0.89304	0.947922
227.787	17.3215	-17.7227	0.897321	0.952005
228.461	17.3234	-17.7158	0.901674	0.956336
229.135	17.353	-17.7088	0.9055419	0.959872
229.809	17.3415	-17.7028	0.90942	0.963967
230.482	17.3552	-17.6957	0.913507	0.967955
231.156	17.3357	-17.68816	0.91743	0.972285
231.83	17.3707	-17.68236	0.921637	0.976141
232.504	17.35	-17.6761	0.925982	0.980477
233.178	17.3859	-17.6679	0.930019	0.984617
233.852	17.355	-17.6625	0.934193	0.9885056
234.525	17.3545	-17.6559	0.938025	0.992837
235.199	17.3821	-17.6482	0.942022	0.997036
235.873	17.38982	-17.6419	0.945918	1.00102
236.547	17.3582	-17.6346	0.949962	1.00483
237.2207	17.3332	-17.6299	0.954543	1.00917
237.895	17.3791	-17.62114	0.958324	1.01305
238.568	17.4026	-17.6136	0.962432	1.01691
239.242	17.3648	-17.6093	0.966318	1.02082
239.916	17.3895	-17.6026	0.96998	1.02452
240.59	17.4247	-17.5945	0.974555	1.0289
241.264	17.419	-17.586	0.978722	1.03314
241.9375	17.40469	-17.581	0.982678	1.03695
242.611	17.4033	-17.576	0.986703	1.041187
243.285	17.4189	-17.5676	0.9909451	1.04518
243.959	17.4385	-17.56	0.995314	1.04972
244.633	17.40538	-17.5539	0.999629	1.05386
245.307	17.4448	-17.5486	1.00356	1.05754
245.98	17.4358	-17.5407	1.00745	1.06192
246.6543	17.417	-17.5328	1.0123	1.06683
247.328	17.4594	-17.5263	1.01571	1.0701
248.002	17.5114	-17.5185	1.02004	1.07445
248.676	17.35742	-17.5142	1.02428	1.078602
249.35	17.4379	-17.5058	1.02825	1.08208
250.023	17.4606	-17.5005	1.03429	1.0885
250.697	17.5459	-17.4936	1.03744	1.09129
251.371	17.3995	-17.4826	1.04288	1.096995
252.045	17.4017	-17.4793	1.04495	1.09909
252.719	17.4383	-17.4733	1.04838	1.10263
253.393	17.4764	-17.4669	1.05261	1.106391
254.066	17.4525	-17.46	1.05727	1.11102
254.74	17.476	-17.4524	1.06089	1.11519
255.414	17.4599	-17.4467	1.06485	1.11917
256.088	17.4713	-17.4396	1.06887	1.12314
256.762	17.4938	-17.4326	1.07352	1.12753
257.436	17.4785	-17.426	1.07766	1.13211
258.109	17.454	-17.4192	1.08227	1.13622
258.7832	17.4884	-17.4126	1.0858	1.14005
259.457	17.4953	-17.4056	1.089577	1.14366
260.131	17.4756	-17.3985	1.09384	1.14779
260.805	17.492	-17.3933	1.09788	1.15183
261.479	17.5042	-17.3857	1.101909	1.155713
262.152	17.517	-17.3779	1.10609	1.15775
262.826	17.4783	-17.3726	1.10972	1.16166
263.5	17.51276	-17.3657	1.113948	1.166
264.174	17.522	-17.3584	1.11835	1.17082
264.848	17.5336	-17.3513	1.1225	1.17471
265.521	17.5297	-17.3451	1.12659	1.17885
266.195	17.5557	-17.3385	1.130576	1.1827
266.869	17.5145	-17.3315	1.13541	1.18756
267.543	17.5286	-17.3244	1.1398	1.19204
268.2168	17.5442	-17.3176	1.14302	1.19553
268.891	17.5316	-17.312	1.147329	1.1999
269.564	17.5391	-17.3058	1.15133	1.20397
270.238	17.5234	-17.2971	1.15554	1.20848
270.912	17.5397	-17.291	1.15926	1.21234
271.586	17.5584	-17.28418	1.16354	1.21665
272.26	17.529	-17.2779	1.1675	1.22071
272.934	17.5448	-17.2706	1.17203	1.22509
273.607	17.56354	-17.2647	1.17575	1.22887
274.281	17.5628	-17.2588	1.18	1.23317
274.955	17.5467	-17.2519	1.18427	1.23723
275.629	17.51918	-17.244	1.18822	1.24164
276.303	17.5515	-17.2377	1.19182	1.24563
276.977	17.5632	-17.2302	1.19637	1.24971
277.65	17.5746	-17.2233	1.20013	1.253828
278.324	17.5365	-17.217	1.20437	1.25804
278.998	17.5305	-17.2115	1.20833	1.26187
279.672	17.5748	-17.2044	1.21296	1.26641
280.3457	17.5994	-17.1961	1.2168	1.27041
281.02	17.53425	-17.1908	1.22082	1.27423
281.693	17.5486	-17.1854	1.224766	1.27819
282.367	17.57073	-17.1771	1.22867	1.28257
283.041	17.5903	-17.1695	1.23298	1.286768
283.715	17.5505	-17.1639	1.23658	1.29079
284.389	17.6004	-17.1564	1.24059	1.29486
285.0625	17.5602	-17.1495	1.2452	1.299329
285.736	17.61866	-17.1424	1.2492	1.30341
286.41	17.6088	-17.1367	1.25315	1.30748
287.084	17.62125	-17.1301	1.25745	1.3118
287.758	17.5981	-17.1234	1.26201	1.31631
288.432	17.5876	-17.1158	1.266637	1.32104
289.105	17.6005	-17.1091	1.2696	1.32437
289.7793	17.672	-17.1031	1.27412	1.328912
290.453	17.5607	-17.0963	1.27872	1.33326
291.127	17.6015	-17.0885	1.283	1.33784
291.801	17.6168	-17.0825	1.28634	1.34137
292.475	17.6575	-17.07585	1.29061	1.345391
293.148	17.5912	-17.0695	1.29488	1.34968
293.822	17.5904	-17.06146	1.29907	1.35376
294.496	17.6333	-17.055	1.302788	1.35748
295.17	17.6177	-17.0494	1.30709	1.36173
295.844	17.6334	-17.0415	1.31075	1.36556
296.518	17.5967	-17.035	1.31529	1.37011
297.191	17.6395	-17.0284	1.32045	1.37565
297.865	17.5797	-17.0218	1.32351	1.37889
298.539	17.6322	-17.0153	1.32718	1.38219
299.213	17.6145	-17.0083	1.33162	1.3867
299.887	17.6141	-17.0031	1.33555	1.39054
300.561	17.6253	-16.9943	1.33983	1.39514
301.234	17.6457	-16.9873	1.34402	1.39925
301.9082	17.5923	-16.9812	1.34799	1.40351
302.582	17.6372	-16.9756	1.35225	1.40754
303.256	17.6351	-16.9684	1.35629	1.41226
303.93	17.6612	-16.9597	1.360924	1.416589
304.604	17.6181	-16.9546	1.36427	1.42025
305.277	17.6477	-16.9482	1.3676	1.42374
305.951	17.6217	-16.9419	1.3721	1.42861
306.625	17.6549	-16.9334	1.376636	1.43302
307.299	17.6689	-16.927	1.38009	1.43673
307.973	17.6709	-16.9212	1.38435	1.44096
308.646	17.6289	-16.9153	1.38818	1.44468
309.32	17.6344	-16.9061	1.39308	1.44959
309.994	17.6575	-16.8994	1.39647	1.45332
310.668	17.6783	-16.8932	1.40103	1.45605
311.3418	17.6439	-16.8867	1.40515	1.46023
312.016	17.656	-16.8789	1.40974	1.46495
312.689	17.6548	-16.87347	1.41369	1.46881
313.363	17.67849	-16.8663	1.418	1.47343
314.037	17.6678	-16.8602	1.42195	1.47759
314.711	17.55298	-16.8531	1.42651	1.48284
315.385	17.6308	-16.8471	1.4296	1.485889
316.059	17.6457	-16.8404	1.43417	1.49057
316.732	17.6747	-16.8328	1.43791	1.49453
317.406	17.6252	-16.8269	1.44241	1.49905
318.08	17.6273	-16.8203	1.44607	1.50307
318.754	17.6833	-16.8126	1.45065	1.50757
319.428	17.7026	-16.8054	1.45517	1.51224
320.102	17.6139	-16.7995	1.45885	1.51589
320.775	17.6489	-16.7933	1.46257	1.51961
321.449	17.6365	-16.7856	1.4665	1.52374
322.123	17.6958	-16.7781	1.47089	1.52795
322.797	17.651	-16.7725	1.47463	1.53207
323.4707	17.676	-16.766	1.478573	1.53596
324.145	17.6451	-16.7596	1.48289	1.54052
324.818	17.6778	-16.7518	1.48757	1.54531
325.492	17.6965	-16.7458	1.49116	1.54927
326.166	17.6966	-16.7389	1.49534	1.55394
326.84	17.6509	-16.7321	1.49946	1.55797
327.514	17.6752	-16.7243	1.5037	1.56234
328.1875	17.6776	-16.7182	1.50704	1.56606
328.861	17.6944	-16.7112	1.51171	1.57049
329.535	17.6721	-16.7044	1.5152	1.574358
330.209	17.6608	-16.6974	1.51978	1.5788
330.883	17.67915	-16.6918	1.52415	1.58306
331.557	17.69326	-16.6847	1.52811	1.58732
332.23	17.7114	-16.6775	1.53206	1.59143
332.9043	17.6564	-16.6709	1.536433	1.59599
333.578	17.6713	-16.6658	1.54005	1.59982
334.252	17.6831	-16.658	1.54416	1.60424
334.926	17.7356	-16.651	1.548236	1.60839
335.6	17.6466	-16.6448	1.55252	1.61295
336.273	17.6695	-16.6386	1.55654	1.61689
336.947	17.6835	-16.6308	1.56089	1.62149
337.621	17.7237	-16.6231	1.56512	1.62597
338.295	17.669	-16.6182	1.56868	1.63001
338.969	17.7114	-16.6119	1.57272	1.63383
339.643	17.6609	-16.6043	1.5776	1.6391
340.316	17.7127	-16.5962	1.58154	1.64307
340.99	17.6865	-16.5899	1.58502	1.64658
341.664	17.7383	-16.5841	1.5889	1.65106
342.338	17.7031	-16.578	1.59338	1.6558
343.012	17.6974	-16.5694	1.59734	1.659932
343.686	17.714	-16.5629	1.60131	1.66356
344.359	17.7162	-16.5569	1.60534	1.66786
345.0332	17.7149	-16.5505	1.609	1.67163
345.707	17.7074	-16.5375	1.61574	1.6784
346.381	17.58	-16.5365	1.62001	1.68127
347.055	17.659	-16.52998	1.62336	1.68478
347.729	17.6939	-16.5225	1.62667	1.68841
348.402	17.662	-16.5167	1.630705	1.69287
349.076	17.6928	-16.5114	1.63462	1.69666
349.75	17.6991	-16.5039	1.64019	1.70257
350.424	17.7153	-16.4953	1.64658	1.70965
351.098	17.6439	-16.4893	1.64994	1.71326
351.771	17.7242	-16.4828	1.65426	1.71765
352.445	17.6875	-16.4749	1.65835	1.72203
353.119	17.6317	-16.468	1.66038	1.72451
353.793	17.64465	-16.46335	1.66247	1.72656
354.4668	17.7091	-16.45726	1.66611	1.73073
355.141	17.6838	-16.4488	1.67068	1.73557
355.814	17.7208	-16.44039	1.67498	1.73994
356.488	17.7172	-16.4352	1.67832	1.74372
357.162	17.74205	-16.4294	1.68272	1.74839
357.836	17.7033	-16.4215	1.68655	1.75216
358.51	17.7005	-16.4144	1.69145	1.75747
359.184	17.7265	-16.4089	1.694826	1.76107
359.857	17.7556	-16.4012	1.69896	1.7654
360.531	17.6934	-16.3959	1.70275	1.76939
361.205	17.6868	-16.3878	1.70709	1.77366
361.879	17.7066	-16.381	1.71191	1.77875
362.553	17.7088	-16.37528	1.71626	1.78319
363.227	17.8139	-16.3643	1.72009	1.7876
363.9	17.6661	-16.3617	1.72409	1.79189
364.574	17.674	-16.3555	1.72718	1.795274
365.248	17.6997	-16.3481	1.7316	1.8
365.922	17.7485	-16.3403	1.73481	1.80364
366.5957	17.7113	-16.33481	1.73904	1.80823
367.27	17.7002	-16.3294	1.74312	1.81264
367.943	17.6928	-16.3209	1.74919	1.81882
368.617	17.7147	-16.31353	1.75193	1.82207
369.291	17.6937	-16.3081	1.75542	1.8258
369.965	17.7319	-16.3015	1.75921	1.82981
370.639	17.6747	-16.2948	1.76342	1.83446
371.3125	17.72806	-16.2861	1.76971	1.84067
371.986	17.66758	-16.2803	1.77177	1.84329
372.66	17.7461	-16.2734	1.77537	1.84708
373.334	17.7026	-16.2674	1.77938	1.85134
374.008	17.6993	-16.2602	1.78358	1.85598
374.682	17.7502	-16.2536	1.78715	1.85952
375.355	17.7335	-16.2474	1.79146	1.86438
376.0293	17.7302	-16.2397	1.795581	1.86851
376.703	17.6938	-16.2331	1.799772	1.87308
377.377	17.7376	-16.2269	1.80382	1.87776
378.051	17.7679	-16.2194	1.80926	1.8837
378.725	17.7614	-16.2132	1.81477	1.88986
379.398	17.7945	-16.2082	1.82005	1.895584
380.072	17.6264	-16.2006	1.82344	1.89971
380.746	17.6586	-16.1935	1.82552	1.90218
381.42	17.67934	-16.1854	1.82824	1.90495
382.094	17.6743	-16.1799	1.83095	1.90785
382.768	17.7213	-16.1736	1.83459	1.91173
383.441	17.7153	-16.1672	1.83885	1.91641
384.115	17.7604	-16.1585	1.84332	1.92125
384.789	17.7457	-16.1537	1.84708	1.92566
385.463	17.844	-16.1459	1.85331	1.93125
386.137	17.8128	-16.1405	1.85956	1.93704
386.811	17.67449	-16.1324	1.86565	1.94428
387.484	17.58638	-16.1259	1.86683	1.946
388.1582	17.5898	-16.1175	1.86821	1.94762
388.832	17.6656	-16.1124	1.87092	1.95055
389.506	17.6924	-16.1047	1.87493	1.95516
390.18	17.74231	-16.0987	1.87855	1.95906
390.854	17.7626	-16.0912	1.88257	1.963717
391.527	17.7484	-16.0847	1.88641	1.96812
392.201	17.6894	-16.0779	1.89074	1.97245
392.875	17.7136	-16.0722	1.89441	1.976561
393.549	17.7301	-16.0644	1.89838	1.98125
394.223	17.7739	-16.0572	1.902077	1.98501
394.896	17.6816	-16.0517	1.90632	1.98967
395.57	17.69873	-16.0457	1.9103	1.99397
396.244	17.7062	-16.0385	1.91428	1.99847
396.918	17.7449	-16.0302	1.91855	2.00289
397.5918	17.7203	-16.0247	1.92189	2.00737
398.266	17.7532	-16.0177	1.9255	2.01133
398.939	17.7135	-16.0118	1.92987	2.01622
399.613	17.75493	-16.0025	1.93439	2.02163
400.287	17.7204	-15.9977	1.93784	2.02531
400.961	17.7731	-15.9914	1.94148	2.02955
401.635	17.7108	-15.9848	1.9458	2.03415
402.309	17.7043	-15.97734	1.94999	2.03942
402.982	17.6925	-15.9709	1.95361	2.0432
403.656	17.7499	-15.9628	1.957628	2.04767
404.33	17.7373	-15.9572	1.96129	2.05179
405.004	17.6897	-15.9499	1.965238	2.05651
405.678	17.7172	-15.94401	1.968816	2.06049
406.352	17.7364	-15.9369	1.97285	2.0651
407.025	17.7744	-15.9294	1.97616	2.06919
407.699	17.6975	-15.9236	1.98096	2.07438
408.373	17.7366	-15.9178	1.98506	2.07937
409.047	17.6772	-15.9098	1.98932	2.0838
409.7207	17.7213	-15.9024	1.992275	2.08739
410.395	17.7028	-15.8972	1.99601	2.09187
411.068	17.7397	-15.8887	2.00117	2.09747
411.742	17.7004	-15.8844	2.00419	2.101177
412.416	17.7322	-15.8772	2.01093	2.10906
413.09	17.5984	-15.8697	2.01301	2.111403
413.764	17.6921	-15.8633	2.01495	2.11392
414.4375	17.7109	-15.8561	2.01872	2.1184
415.111	17.7003	-15.8493	2.02285	2.12334
415.785	17.7295	-15.8429	2.02628	2.12712
416.459	17.7341	-15.8357	2.02966	2.131537
417.133	17.7326	-15.8285	2.0337	2.13612
417.807	17.7137	-15.8214	2.03778	2.14108
418.48	17.7414	-15.8169	2.04211	2.14577
419.1543	17.7358	-15.8094	2.04639	2.15051
419.828	17.735	-15.801	2.04971	2.15457
420.502	17.6776	-15.7954	2.05337	2.15882
421.176	17.6752	-15.79	2.05766	2.1639
421.85	17.74086	-15.7829	2.0618	2.16865
422.523	17.7103	-15.7741	2.06523	2.17297
423.197	17.6794	-15.769	2.06838	2.17679
423.871	17.7233	-15.7639	2.07165	2.1811
424.545	17.6801	-15.7554	2.0754	2.185405
425.219	17.7458	-15.74657	2.07943	2.19044
425.893	17.7284	-15.7419	2.08246	2.19416
426.566	17.737	-15.7344	2.08635	2.19843
427.24	17.7115	-15.72884	2.08971	2.20276
427.914	17.7104	-15.72033	2.09426	2.20816
428.588	17.7332	-15.7141	2.09733	2.21157
429.262	17.7282	-15.7078	2.10118	2.21642
429.936	17.7133	-15.7015	2.10465	2.22061
430.609	17.6862	-15.6946	2.10897	2.22473
431.2832	17.7074	-15.6878	2.11233	2.22871
431.957	17.7371	-15.6812	2.11641	2.23384
432.631	17.75548	-15.6733	2.11972	2.23804
433.305	17.6741	-15.6677	2.12275	2.24278
433.979	17.6792	-15.6617	2.12617	2.24705
434.652	17.7122	-15.65472	2.130023	2.2523
435.326	17.7508	-15.6456	2.13341	2.25643
436	17.678	-15.6407	2.136807	2.26115
436.674	17.6986	-15.634	2.14014	2.26503
437.348	17.6762	-15.6281	2.144299	2.27032
438.021	17.7321	-15.6189	2.14832	2.27477
438.695	17.7221	-15.61415	2.15106	2.27886
439.369	17.7495	-15.6063	2.15462	2.28329
440.043	17.6823	-15.6008	2.15832	2.28789
440.7168	17.6692	-15.5916	2.17036	2.30271
441.391	17.50703	-15.5857	2.17149	2.30506
442.064	17.4684	-15.5805	2.17212	2.30609
442.738	17.5933	-15.5724	2.17395	2.30874
443.412	17.6592	-15.5664	2.176693	2.31239
444.086	17.6945	-15.5598	2.18	2.31632
444.76	17.7071	-15.5523	2.18369	2.32123
445.434	17.7363	-15.5457	2.18709	2.32547
446.107	17.6642	-15.5393	2.19076	2.3299
446.781	17.6717	-15.5345	2.19392	2.33429
447.455	17.684	-15.5256	2.1996	2.34093
448.129	17.7095	-15.51792	2.202714	2.34529
448.803	17.6255	-15.5134	2.2057	2.349206
449.477	17.667	-15.50588	2.20811	2.35276
450.15	17.6817	-15.4993	2.21146	2.35711
450.824	17.712	-15.4905	2.21546	2.36229
451.498	17.7036	-15.48547	2.21818	2.36617
452.172	17.7892	-15.4782	2.22437	2.37415
452.8457	17.6409	-15.4726	2.22817	2.37946
453.52	17.6841	-15.4649	2.23073	2.383013
454.193	17.7023	-15.4579	2.23409	2.38745
454.867	17.7136	-15.4518	2.23774	2.39283
455.541	17.6535	-15.449	2.24054	2.39676
456.215	17.7773	-15.4393	2.24427	2.40163
456.889	17.701	-15.432	2.24909	2.40861
457.5625	17.6302	-15.4243	2.25147	2.41239
458.236	17.6237	-15.4164	2.25305	2.41487
458.91	17.6373	-15.4114	2.25568	2.41802
459.584	17.6726	-15.4057	2.25858	2.4222
460.258	17.6874	-15.3984	2.26222	2.42748
460.932	17.5832	-15.3895	2.26702	2.43402
461.605	17.6333	-15.3852	2.26866	2.43659
462.2793	17.6028	-15.3791	2.27267	2.44178
462.953	17.6574	-15.3715	2.2759	2.44652
463.627	17.6924	-15.3625	2.279593	2.45185
464.301	17.67	-15.3576	2.28192	2.45539
464.975	17.7432	-15.3503	2.28499	2.45983
465.648	17.6767	-15.3447	2.28875	2.46416
466.322	17.6674	-15.3363	2.29173	2.46898
466.996	17.6866	-15.3301	2.29446	2.47283
467.67	17.6784	-15.3235	2.29816	2.47825
468.344	17.69771	-15.3175	2.30059	2.48267
469.018	17.6374	-15.3109	2.30422	2.48761
469.691	17.6444	-15.3044	2.30676	2.4919
470.365	17.6709	-15.2973	2.31063	2.49753
471.039	17.7063	-15.2885	2.31341	2.50202
471.713	17.636	-15.2833	2.31612	2.507
472.387	17.6518	-15.2776	2.319	2.51147
473.061	17.6667	-15.2704	2.32233	2.51688
473.734	17.696	-15.26275	2.32561	2.52209
474.4082	17.655	-15.2568	2.32814	2.52616
475.082	17.7002	-15.2498	2.33084	2.53108
475.756	17.6225	-15.2439	2.3348	2.53733
476.43	17.7117	-15.2357	2.33944	2.54474
477.104	17.5944	-15.2296	2.34173	2.54957
477.777	17.6231	-15.2225	2.343447	2.55211
478.451	17.6614	-15.2161	2.34548	2.55576
479.125	17.6438	-15.2082	2.348546	2.56135
479.799	17.681	-15.2031	2.35128	2.56538
480.473	17.68853	-15.1954	2.35401	2.57058
481.146	17.6887	-15.188	2.35683	2.57571
481.82	17.6063	-15.1827	2.35952	2.58086
482.494	17.6121	-15.1767	2.36233	2.585516
483.168	17.634	-15.169	2.36504	2.59084
483.8418	17.7004	-15.1604	2.36819	2.59607
484.516	17.6268	-15.15548	2.37026	2.60051
485.189	17.6792	-15.1481	2.37274	2.60552
485.863	17.62	-15.1425	2.37576	2.61091
486.537	17.6771	-15.1336	2.37877	2.61646
487.211	17.6534	-15.1281	2.3806	2.6207
487.885	17.6818	-15.1208	2.38332	2.62591
488.559	17.6537	-15.11453	2.38851	2.63528
489.232	17.5099	-15.1071	2.389797	2.6389
489.906	17.6193	-15.1012	2.39161	2.6422
490.58	17.6618	-15.0937	2.39399	2.64708
491.254	17.6641	-15.0877	2.39618	2.65198
491.928	17.6115	-15.0823	2.39965	2.65896
492.602	17.5899	-15.0763	2.40112	2.66252
493.275	17.6403	-15.06762	2.40341	2.66757
493.949	17.6776	-15.0602	2.40561	2.672174
494.623	17.5681	-15.0549	2.408042	2.67785
495.297	17.6063	-15.0487	2.40989	2.68228
495.9707	17.6042	-15.0413	2.41257	2.68773
496.645	17.659	-15.0335	2.41518	2.69347
497.318	17.6217	-15.0284	2.4169	2.697928
497.992	17.6636	-15.0202	2.41867	2.70322
498.666	17.5905	-15.0146	2.42126	2.709475
499.34	17.61219	-15.0065	2.42335	2.71499
500.014	17.6399	-15.0008	2.4249	2.71936
500.6875	17.6648	-14.9933	2.427352	2.72469
501.361	17.639	-14.9862	2.42921	2.73002
502.035	17.5805	-14.9793	2.4312	2.73567
502.709	17.579	-14.97356	2.43299	2.74083
503.383	17.6131	-14.9657	2.43556	2.7468
504.057	17.6373	-14.959	2.43703	2.75166
504.73	17.6192	-14.9531	2.43893	2.75754
505.4043	17.7269	-14.9474	2.44191	2.76475
506.078	17.574	-14.9397	2.4447	2.77514
506.752	17.4906	-14.9317	2.44527	2.77803
507.426	17.4858	-14.9258	2.44567	2.78006
508.1	17.6137	-14.9197	2.44738	2.78408
508.773	17.55213	-14.9139	2.44917	2.7897
509.447	17.5952	-14.9051	2.45131	2.79577
510.121	17.6014	-14.8996	2.45248	2.8004
510.795	17.6377	-14.8923	2.45437	2.80612
511.469	17.5939	-14.88612	2.45562	2.81152
512.143	17.5434	-14.8793	2.45745	2.81817
512.816	17.6097	-14.8722	2.45901	2.82298
513.49	17.589	-14.8656	2.46045	2.82948
514.164	17.6106	-14.858	2.46204	2.83514
514.838	17.53734	-14.8521	2.46336	2.841238
515.512	17.5491	-14.847	2.465127	2.84756
516.186	17.5165	-14.8409	2.46668	2.85444
516.859	17.5823	-14.8298	2.46788	2.85812
517.5332	17.5441	-14.8252	2.46849	2.86219
518.207	17.809	-14.8113	2.47089	2.8703
518.881	17.461	-14.8127	2.47185	2.878211
519.555	17.5725	-14.80387	2.47364	2.88496
520.229	17.4861	-14.7983	2.47394	2.89011
520.902	17.7179	-14.7893	2.47541	2.89482
521.576	17.6274	-14.7805	2.47791	2.90651
522.25	17.4644	-14.7774	2.47879	2.91415
522.924	17.6527	-14.7709	2.47911	2.91825
523.598	17.7357	-14.7636	2.48311	2.933033
524.271	17.61867	-14.7573	2.48301	2.9422
524.945	17.4668	-14.7513	2.48487	2.95184
525.619	17.4684	-14.7454	2.48547	2.95712
526.293	17.4283	-14.7372	2.48581	2.96243
526.9668	17.4303	-14.7294	2.48641	2.965692
527.641	17.3548	-14.7241	2.48641	2.96843
528.314	17.3236	-14.7182	2.48645	2.969892
528.988	17.42247	-14.7117	2.48708	2.9722
529.662	17.4662	-14.702	2.48806	2.97619
530.336	17.4518	-14.6972	2.488678	2.97959
531.01	17.4628	-14.69	2.48956	2.984359
531.684	17.428	-14.6837	2.48954	2.98736
532.357	17.4779	-14.6766	2.490721	2.99244
533.031	17.515	-14.6707	2.49164	2.99865
533.705	17.4968	-14.6632	2.49225	3.00464
534.379	17.5153	-14.6556	2.4929	3.00992
535.053	17.4241	-14.6506	2.493552	3.01735
535.727	17.3304	-14.6415	2.49475	3.027019
536.4	17.3627	-14.63743	2.49502	3.03053
537.074	17.4137	-14.6294	2.495918	3.03664
537.748	17.4027	-14.6236	2.496	3.04171
538.422	17.481	-14.61644	2.49651	3.04679
539.0957	17.5403	-14.6098	2.497792	3.05443
539.77	17.5746	-14.6013	2.49897	3.06807
540.443	17.5205	-14.5972	2.49863	3.08163
541.117	17.46373	-14.5921	2.49956	3.09265
541.791	17.43889	-14.5854	2.49907	3.09803
542.465	17.2231	-14.5763	2.49928	3.10651
543.139	17.372	-14.5724	2.50083	3.11224
543.8125	17.4714	-14.5571	2.50179	3.12037
544.486	17.2357	-14.5556	2.5002	3.125931
545.16	17.1451	-14.5488	2.50051	3.13288
545.834	17.3163	-14.5447	2.5011	3.13577
546.508	17.2622	-14.5361	2.50141	3.14347
547.182	17.4589	-14.5277	2.5033	3.15084
547.855	17.2226	-14.5247	2.50268	3.15924
548.5293	17.145	-14.5204	2.50216	3.16173
549.203	17.1288	-14.5069	2.50173	3.16277
549.877	17.2864	-14.5027	2.502172	3.164494
550.551	17.3403	-14.49371	2.504555	3.18292
551.225	17.4156	-14.4884	2.5033	3.1871
551.898	17.253	-14.4866	2.50423	3.19507
552.572	17.1792	-14.4748	2.50363	3.1977
553.246	17.13961	-14.4683	2.50362	3.19906
553.92	17.1293	-14.4611	2.50354	3.20033
554.594	17.26832	-14.4534	2.50448	3.20312
555.268	17.3156	-14.4482	2.50506	3.20849
555.941	17.3823	-14.4437	2.50505	3.21492
556.615	17.4593	-14.4412	2.50596	3.23064
557.289	17.3052	-14.4259	2.50629	3.24945
557.963	17.0717	-14.4223	2.50514	3.25407
558.637	17.3825	-14.4149	2.50599	3.25764
559.311	17.1914	-14.4078	2.50601	3.26776
559.984	17.1727	-14.4031	2.50573	3.27283
560.6582	16.9625	-14.4023	2.50425	3.27366
561.332	16.8712	-14.4041	2.50401	3.27367
562.006	16.7964	-14.4028	2.50329	3.27344
562.68	16.691	-14.40423	2.50302	3.27362
563.354	16.7233	-14.4037	2.503	3.27354
564.027	16.7868	-14.4019	2.5033	3.27395
564.701	16.7639	-14.4025	2.502984	3.27362
565.375	16.67074	-14.4034	2.50264	3.27331
566.049	16.67671	-14.40328	2.50267	3.27314
566.723	16.6862	-14.4032	2.502635	3.27347
567.396	16.7339	-14.4012	2.48094	3.27393
568.07	16.6342	-14.40454	2.4794	3.27318
568.744	16.6737	-14.4035	2.47967	3.27363
569.418	16.6285	-14.404	2.47976	3.27383
570.0918	16.6887	-14.4019	2.47944	3.27403
570.766	16.6496	-14.403	2.47634	3.273807
571.439	16.7027	-14.4024	2.48319	3.27421
572.113	16.6513	-14.4028	2.46696	3.27397
572.787	16.626	-14.4027	1.87572	3.27381
573.461	16.5984	-14.4048	0.836015	3.27366
574.135	16.6558	-14.40266	0.111274	3.27389
574.809	16.6641	-14.403	-0.269721	3.2734
575.482	16.5624	-14.4038	0.142762	3.27313
576.156	16.5748	-14.4036	0.245955	3.27303
576.83	16.5924	-14.4036	0.299937	3.27319
577.504	16.6611	-14.4015	-0.28063	3.27351
578.178	16.5821	-14.4041	0.549666	3.27296
578.852	16.6389	-14.4027	0.785549	3.27323
579.525	16.5785	-14.4038	0.784381	3.273195
580.199	16.617	-14.4029	0.783771	3.27348
580.873	16.5735	-14.40377	0.783466	3.27295
581.547	16.6224	-14.4024	0.78317	3.27336
582.2207	16.5956	-14.40299	0.782829	3.27353
582.895	16.5376	-14.4033	0.782504	3.27358
583.568	16.52746	-14.40437	0.782541	3.27321
584.242	16.5937	-14.4037	0.782562	3.27365
584.916	16.631	-14.4025	0.782549	3.2737
585.59	16.53257	-14.4036	0.782535	3.27317
586.264	16.5711	-14.4039	0.782837	3.27329
586.9375	16.5483	-14.4035	0.783516	3.27326
587.611	16.60006	-14.4014	0.784365	3.27347
588.285	16.5408	-14.403	0.784771	3.2732
588.959	16.6981	-14.4008	0.802048	3.27377
589.633	17.0385	-14.3928	0.845869	3.27549
590.307	17.1595	-14.3858	0.863329	3.2828
590.98	17.3094	-14.38196	0.871319	3.2871
591.6543	17.2898	-14.3761	0.875118	3.29391
592.328	17.3501	-14.3637	0.877043	3.29872
593.002	17.1351	-14.3614	0.877088	3.304419
593.676	17.2537	-14.3534	0.876119	3.30939
594.35	17.2377	-14.3465	0.8754403	3.31735
595.023	17.1604	-14.3373	0.875163	3.32511
595.697	17.10214	-14.3343	0.875399	3.33043
596.371	17.2691	-14.3276	0.875845	3.33601
597.045	17.1007	-14.3199	0.876465	3.34833
597.719	17.1183	-14.3113	0.877589	3.35258
598.393	17.1598	-14.3058	0.880246	3.35595
599.066	17.0644	-14.2968	0.882525	3.36778
599.74	17.1472	-14.2934	0.883701	3.36962
600.414	17.0903	-14.2858	0.883373	3.37591
601.088	17.1001	-14.2805	0.883119	3.38154
601.762	17.1161	-14.2725	0.8831293	3.38923
602.436	17.179	-14.2643	0.8831017	3.39572
603.109	17.0874	-14.2591	0.882841	3.40171
603.7832	17.1303	-14.2521	0.882515	3.40775
604.457	17.0556	-14.2468	0.882451	3.41512
605.131	17.0883	-14.2366	0.882179	3.42279
605.805	17.1933	-14.2318	0.882157	3.43009
606.479	16.9576	-14.22317	0.882173	3.43856
607.152	17.083	-14.2239	0.881822	3.44155
607.826	16.94816	-14.2114	0.881545	3.453248
608.5	16.9003	-14.2121	0.881548	3.45593
609.174	16.8882	-14.2002	0.881859	3.45817
609.848	17.1284	-14.19229	0.882253	3.462975
610.521	16.8685	-14.1848	0.882843	3.47911
611.195	16.8853	-14.1795	0.883392	3.48127
611.869	16.891	-14.1714	0.884313	3.49354
612.543	17.0241	-14.1625	0.884913	3.50053
613.2168	16.8191	-14.1574	0.8851611	3.5043
613.891	16.8854	-14.1504	0.885628	3.509927
614.564	16.8822	-14.1414	0.884862	3.51805
615.238	16.7987	-14.13602	0.883961	3.52429
615.912	16.95985	-14.1299	0.883959	3.52639
616.586	17.02393	-14.1213	0.883971	3.53363
617.26	16.9659	-14.1162	0.884185	3.53894
617.934	16.8739	-14.1106	0.884237	3.54561
618.607	16.8843	-14.1053	0.884255	3.55162
619.281	16.8918	-14.0966	0.884505	3.55913
619.955	16.9328	-14.089	0.885169	3.56555
620.629	16.8705	-14.0844	0.885947	3.571594
621.303	16.899	-14.0762	0.886514	3.57769
621.977	16.8161	-14.0711	0.887101	3.58502
622.65	16.8474	-14.0619	0.887397	3.5923
623.324	16.8552	-14.0561	0.887675	3.5976
623.998	16.9185	-14.0491	0.887679	3.60409
624.672	16.8374	-14.0431	0.887688	3.610985
625.3457	16.80501	-14.0357	0.887938	3.61821
626.02	16.8893	-14.0295	0.887913	3.62444
626.693	16.8344	-14.0208	0.887635	3.63665
627.367	16.6318	-14.0161	0.887325	3.64057
628.041	16.6772	-14.0099	0.887579	3.64476
628.715	16.6768	-14.0041	0.887855	3.65079
629.389	16.6827	-13.9964	0.888223	3.65833
630.0625	16.7941	-13.9851	0.888497	3.67047
630.736	16.5571	-13.98303	0.8890816	3.67379
631.41	16.7546	-13.9738	0.889434	3.67798
632.084	16.6477	-13.9693	0.889956	3.68578
632.758	16.67355	-13.9608	0.890681	3.69101
633.432	16.7193	-13.9556	0.891666	3.69609
634.105	16.745	-13.9476	0.892004	3.70318
634.7793	16.73122	-13.9419	0.892837	3.70946
635.453	16.38011	-13.9349	0.893778	3.72147
636.127	16.51667	-13.9307	0.894341	3.72416
636.801	16.525	-13.9204	0.894996	3.73317
637.475	16.5826	-13.9141	0.895403	3.73844
638.148	16.6042	-13.9097	0.895377	3.74226
638.822	16.6601	-13.902	0.895577	3.74805
639.496	16.5742	-13.8955	0.8958838	3.75582
640.17	16.5959	-13.8873	0.89565	3.76309
640.844	16.5978	-13.8817	0.895319	3.76819
641.518	16.7548	-13.8738	0.894936	3.77622
642.191	16.392	-13.868	0.8945784	3.78389
642.865	16.5171	-13.8608	0.894553	3.79469
643.539	16.40176	-13.8546	0.894271	3.79763
644.213	16.4817	-13.84728	0.894295	3.80857
644.887	16.3928	-13.8405	0.894306	3.81094
645.561	16.34684	-13.8343	0.893948	3.81817
646.234	16.4427	-13.8293	0.894297	3.82101
646.9082	16.3974	-13.8213	0.893985	3.82903
647.582	16.4842	-13.8123	0.893694	3.83513
648.256	16.4717	-13.8073	0.893367	3.84002
648.93	16.5255	-13.8003	0.8927809	3.84642
649.604	16.42061	-13.794	0.89243	3.85364
650.277	16.4141	-13.7868	0.892155	3.8612
650.951	16.44866	-13.7808	0.8919	3.86666
651.625	16.4684	-13.773	0.891557	3.87406
652.299	16.4417	-13.7659	0.891592	3.88037
652.973	16.3329	-13.7608	0.891283	3.88751
653.646	16.3309	-13.7556	0.891033	3.89274
654.32	16.3364	-13.7453	0.890995	3.9063
654.994	16.2404	-13.7395	0.890735	3.91009
655.668	16.26647	-13.7346	0.890425	3.91367
656.3418	16.5427	-13.7277	0.890361	3.91866
657.016	16.0684	-13.7197	0.889945	3.93046
657.689	16.1583	-13.712	0.88995	3.93823
658.363	16.2359	-13.7066	0.889626	3.9399
659.037	16.2166	-13.6998	0.889143	3.94854
659.711	16.1329	-13.6916	0.888502	3.957207
660.385	16.2426	-13.6811	0.887302	3.96513
661.059	16.0539	-13.681	0.886437	3.96792
661.732	16.0901	-13.671	0.885557	3.97756
662.406	16.2333	-13.6617	0.884818	3.98158
663.08	16.1278	-13.6597	0.884551	3.98565
663.754	16.0768	-13.6518	0.884558	3.99678
664.428	16.1063	-13.6464	0.884541	4.00007
665.102	16.1838	-13.6376	0.884484	4.0062
665.775	16.1751	-13.6322	0.88449	4.01141
666.449	16.1979	-13.6248	0.884821	4.017941
667.123	16.1392	-13.61883	0.885054	4.02477
667.797	16.0778	-13.6109	0.885774	4.03257
668.4707	16.2022	-13.6054	0.886691	4.03798
669.145	16.0772	-13.5975	0.88783	4.04634
669.818	16.032	-13.5929	0.8896926	4.05135
670.492	16.1409	-13.5872	0.89103	4.06044
671.166	15.9222	-13.5792	0.891882	4.06707
671.84	15.8868	-13.5706	0.89309	4.075943
672.514	16.0223	-13.5622	0.894058	4.0819
673.1875	15.8941	-13.56074	0.895006	4.08528
673.861	15.8587	-13.5518	0.895886	4.09487
674.535	15.7497	-13.5438	0.896569	4.10265
675.209	15.8736	-13.5368	0.897142	4.11066
675.883	15.8591	-13.5327	0.897677	4.11232
676.557	15.98627	-13.5226	0.897712	4.117949
677.23	15.9493	-13.5171	0.898039	4.12463
677.9043	15.8291	-13.5105	0.898291	4.13204
678.578	15.89741	-13.5048	0.898632	4.13747
679.252	15.8995	-13.4965	0.898631	4.14537
679.926	15.913	-13.4892	0.898538	4.15087
680.6	15.808	-13.4846	0.898596	4.15734
681.273	15.84174	-13.479	0.898571	4.16311
681.947	15.7857	-13.471	0.898574	4.17157
682.621	15.8192	-13.4617	0.898597	4.178257
683.295	15.8045	-13.4575	0.898598	4.18319
683.969	15.8989	-13.4532	0.898244	4.19009
684.643	15.6315	-13.4439	0.898228	4.1998
685.316	15.6456	-13.4351	0.898305	4.20725
685.99	15.80506	-13.43049	0.89822	4.21204
686.664	15.8996	-13.4208	0.898254	4.21879
687.338	15.5736	-13.416	0.897957	4.22587
688.012	15.4876	-13.41	0.8979041	4.232481
688.686	15.6024	-13.4056	0.897615	4.23615
689.359	15.63449	-13.3954	0.897339	4.24428
690.0332	15.6445	-13.388	0.897301	4.2514
690.707	15.615	-13.3836	0.89732	4.25605
691.381	15.8321	-13.3751	0.897084	4.26205
692.055	15.6208	-13.3696	0.897031	4.27593
692.729	15.45698	-13.36174	0.897345	4.28056
693.402	15.5427	-13.3576	0.897446	4.28372
694.076	15.6986	-13.3436	0.8970589	4.29041
694.75	15.5399	-13.33569	0.897056	4.2993
695.424	15.5109	-13.3339	0.897115	4.30767
696.098	15.494	-13.3311	0.897105	4.31264
696.771	15.4829	-13.3209	0.897038	4.32097
697.445	15.5378	-13.3153	0.89678	4.32776
698.119	15.2556	-13.3104	0.896808	4.3321
698.793	15.3322	-13.3038	0.896492	4.33745
699.4668	15.348	-13.2963	0.896526	4.34452
700.141	15.4991	-13.2875	0.896485	4.35387
700.814	15.2531	-13.2833	0.896451	4.360178
701.488	15.3895	-13.2736	0.89642	4.36453
702.162	15.2304	-13.2686	0.896493	4.37119
702.836	15.3819	-13.2638	0.8964	4.37841
703.51	15.2375	-13.26019	0.896457	4.38337
704.184	15.1965	-13.2443	0.896455	4.38556
704.857	15.3448	-13.2393	0.89641	4.38812
705.531	15.2727	-13.2351	0.896383	4.39442
706.205	15.1812	-13.2308	0.896425	4.39734
706.879	15.26852	-13.2206	0.8964361	4.40061
707.553	15.2989	-13.2135	0.896385	4.407
708.227	15.24537	-13.2088	0.8964023	4.41394
708.9	15.176	-13.1983	0.896464	4.42408
709.574	15.235	-13.1875	0.896436	4.44126
710.248	15.1251	-13.1872	0.89644	4.45728
710.922	14.9176	-13.1816	0.896407	4.45962
711.5957	15.06	-13.1691	0.896471	4.46941
712.27	14.9988	-13.1668	0.896171	4.47256
712.943	14.8909	-13.1604	0.8958984	4.47926
713.617	15.1261	-13.1564	0.895897	4.485662
714.291	14.9979	-13.1469	0.895652	4.49313
714.965	15.0621	-13.1374	0.895622	4.49983
715.639	14.8694	-13.1348	0.89562	4.50461
716.3125	14.8747	-13.1276	0.895644	4.51216
716.986	14.8028	-13.12	0.895621	4.52152
717.66	14.8931	-13.1116	0.895639	4.52636
718.334	14.9608	-13.1068	0.89564	4.52988
719.008	15.0275	-13.0997	0.895649	4.53661
719.682	14.835	-13.0936	0.895633	4.54461
720.355	14.8329	-13.08606	0.8956787	4.55113
721.0293	14.8666	-13.0806	0.895641	4.55605
721.703	14.869	-13.0714	0.895658	4.56411
722.377	14.86916	-13.0631	0.895653	4.571
723.051	14.7381	-13.0605	0.895669	4.576447
723.725	14.7146	-13.0572	0.895619	4.58148
724.398	14.6453	-13.0452	0.895677	4.58432
725.072	14.67742	-13.03879	0.895587	4.58549
725.746	14.7947	-13.0331	0.8955819	4.58864
726.42	14.7274	-13.0226	0.895557	4.59634
727.094	14.72653	-13.018	0.895572	4.59995
727.768	14.7642	-13.0107	0.895573	4.6181
728.441	14.7404	-13.0048	0.895584	4.62792
729.115	14.651	-12.9997	0.895574	4.63863
729.789	14.6436	-12.9922	0.895569	4.64603
730.463	14.6005	-12.9854	0.8955484	4.6526
731.137	14.498	-12.9778	0.895602	4.66156
731.811	14.6041	-12.9712	0.895578	4.66877
732.484	14.4309	-12.964	0.895586	4.67406
733.1582	14.48835	-12.9608	0.895607	4.6825
733.832	14.3827	-12.9518	0.895592	4.685432
734.506	14.3842	-12.944	0.8955754	4.6934
735.18	14.4334	-12.9368	0.895672	4.69902
735.854	14.4686	-12.9323	0.895637	4.70334
736.527	14.50083	-12.9225	0.895593	4.7106
737.201	14.4371	-12.917	0.895674	4.718061
737.875	14.3658	-12.9121	0.895623	4.73001
738.549	14.24944	-12.9052	0.895604	4.73466
739.223	14.3419	-12.8966	0.895658	4.73995
739.896	14.3537	-12.8884	0.895616	4.74605
740.57	14.2297	-12.8864	0.895586	4.75082
741.244	14.3034	-12.8781	0.895639	4.75643
741.918	14.1963	-12.8704	0.895589	4.76561
742.5918	14.2544	-12.8618	0.895568	4.77669
743.266	14.0004	-12.859	0.895588	4.78106
743.939	14.2155	-12.8486	0.895855	4.786284
744.613	14.166	-12.8444	0.8957898	4.79155
745.287	14.108	-12.8363	0.895869	4.79966
745.961	14.1219	-12.8325	0.895829	4.80395
746.635	14.0613	-12.8235	0.896067	4.80799
747.309	14.0925	-12.8174	0.896388	4.811142
747.982	14.0684	-12.8115	0.896739	4.82277
748.656	14.0283	-12.8049	0.896686	4.83262
749.33	13.9849	-12.7977	0.89695	4.839314
750.004	13.97771	-12.7863	0.896995	4.85376
750.678	13.7486	-12.7837	0.897251	4.85666
751.352	13.988	-12.7776	0.897513	4.8588
752.025	13.65167	-12.77012	0.897936	4.86997
752.699	13.86	-12.7606	0.898165	4.877809
753.373	13.7599	-12.7574	0.89819	4.87986
754.047	13.8807	-12.7461	0.898503	4.88737
754.7207	13.793	-12.7383	0.90067	4.89549
755.395	13.7058	-12.7373	0.90135	4.8995
756.068	13.6194	-12.7306	0.901904	4.90117
756.742	13.7471	-12.7229	0.902493	4.90299
757.416	13.7635	-12.7126	0.903115	4.910285
758.09	13.6603	-12.70885	0.9034813	4.9142
758.764	13.6569	-12.7037	0.903694	4.91598
759.4375	13.6842	-12.6962	0.903719	4.92139
760.111	13.7321	-12.6863	0.9037835	4.92913
760.785	13.6711	-12.6828	0.904043	4.93582
761.459	13.7437	-12.6745	0.904014	4.94198
762.133	13.6843	-12.6702	0.903992	4.95369
762.807	13.4936	-12.6614	0.90398	4.97646
763.48	13.41	-12.6586	0.90399	4.980217
764.1543	13.3863	-12.6494	0.90427	4.98226
764.828	13.4156	-12.6404	0.904011	4.98459
765.502	13.3805	-12.635	0.904	4.98662
766.176	13.3753	-12.6301	0.9039641	4.98839
766.85	13.4687	-12.6202	0.904033	4.99578
767.523	13.50736	-12.6115	0.903996	5.00277
768.197	13.3171	-12.60855	0.90399	5.01241
768.871	13.4197	-12.60386	0.904079	5.01802
769.545	13.2967	-12.5948	0.904019	5.02823
770.219	13.273	-12.586	0.903746	5.0337
770.893	13.2183	-12.582	0.903444	5.03698
771.566	13.3275	-12.5733	0.90315	5.04259
772.24	13.1965	-12.5677	0.902503	5.05239
772.914	13.1728	-12.5596	0.901985	5.06024
773.588	13.1561	-12.5551	0.9016825	5.06418
774.262	13.2572	-12.5582	0.901396	5.07102
774.936	13.0401	-12.539	0.901094	5.08462
775.609	13.0156	-12.5362	0.900726	5.09009
776.2832	13.0256	-12.52835	0.9004131	5.09511
776.957	13.0204	-12.5195	0.9001385	5.10038
777.631	13.0018	-12.5119	0.899711	5.1073
778.305	12.9039	-12.5078	0.899718	5.11202
778.979	13.1305	-12.498	0.899375	5.11624
779.652	12.874	-12.49331	0.899392	5.12727
780.326	12.86369	-12.4857	0.899042	5.1332
781	12.8451	-12.48102	0.899046	5.13694
781.674	12.8502	-12.4762	0.898792	5.14655
782.348	12.71067	-12.4662	0.898776	5.15403
783.021	12.7427	-12.4587	0.8985064	5.16111
783.695	12.7159	-12.454	0.898518	5.165544
784.369	12.7454	-12.4445	0.898525	5.17317
785.043	12.706	-12.4372	0.898576	5.180788
785.7168	12.5644	-12.4332	0.898587	5.1874
786.391	12.5713	-12.4283	0.8985725	5.19263
787.064	12.5272	-12.4187	0.898535	5.20217
787.738	12.5412	-12.4101	0.8985157	5.20906
788.412	12.4585	-12.4073	0.898287	5.21392
789.086	12.5189	-12.39879	0.898505	5.219759
789.76	12.3685	-12.3921	0.898529	5.22924
790.434	12.3353	-12.3845	0.898509	5.237565
791.107	12.3594	-12.3794	0.898453	5.24098
791.781	12.3509	-12.3684	0.898465	5.25039
792.455	12.0782	-12.3644	0.898486	5.26277
793.129	12.0587	-12.3589	0.8985014	5.26631
793.803	11.9832	-12.352	0.898714	5.27212
794.477	10.1995	-12.3424	0.898782	5.29887
794.491	-0.110249	-12.2966	0.898794	5.30053