File: shares/flx_lsms_hydrogen/EXPERIMENTAL_DATA/LABO_SOETE/WP1_TENSILE/AIR/MTS/HYARR10/specimen.dat
MTS793|MPT|ENU|1|2|.|/|:|1|0|0|A

Data Acquisition						Time:	15.0195	s	12/17/2021 3:14:02 PM
Time	ESH B Force	ESH B Displacement	Analog In 2	Analog In 1
s	kN	mm	V	V
0.0332031	0.0937271	0.999599	-0.0044465	-0.0113677
0.428711	0.101429	0.998328	-0.00444801	-0.0116129
0.824219	0.105455	1.00984	-0.004471764	-0.0115177
1.21973	0.100443	1.00034	-0.00445904	-0.01183845
1.61523	0.104586	1.00558	-0.00450422	-0.0118257
2.01074	0.0979331	1.00636	-0.00441836	-0.01145187
2.40625	0.0969516	1.00744	-0.0044172	-0.0113438
2.80176	0.0901681	1.00681	-0.00451089	-0.0117173
3.19727	0.0905144	1.00705	-0.00448277	-0.0115267
3.59277	0.098967	1.00617	-0.004397423	-0.0113133
3.98828	0.100993	1.01306	-0.00446816	-0.0116236
4.38379	0.108259	1.01255	-0.004498058	-0.0114712
4.7793	0.116901	1.00784	-0.00447436	-0.01149712
5.1748	0.124733	1.01065	-0.00447496	-0.01186808
5.57031	0.143153	1.01251	-0.004427243	-0.01142
5.96582	0.148937	1.01695	-0.00446639	-0.0113745
6.36133	0.148646	1.01399	-0.00451358	-0.0117344
6.75684	0.160769	1.01552	-0.004464292	-0.0115691
7.15234	0.1642921	1.01453	-0.0044473	-0.0113914
7.54785	0.173929	1.01667	-0.004466488	-0.0116369
7.94336	0.1469087	1.01635	-0.00444831	-0.0114754
8.33887	0.15819	1.01852	-0.0044822	-0.01154432
8.734375	0.159096	1.01809	-0.00452064	-0.0118159
9.12988	0.176677	1.01986	-0.00443086	-0.0114404
9.52539	0.18297	1.021176	-0.00447039	-0.0113953
9.9209	0.18849	1.02213	-0.00455564	-0.0118128
10.3164	0.193975	1.02289	-0.00449861	-0.011565
10.7119	0.199971	1.02419	-0.00449449	-0.0113732
11.1074	0.200381	1.02518	-0.00449276	-0.0116804
11.50293	0.197947	1.02593	-0.00447512	-0.0114313
11.8984	0.195898	1.02701	-0.00452575	-0.0115278
12.2939	0.198361	1.028	-0.00451481	-0.0118279
12.6895	0.201034	1.02451	-0.00442603	-0.0114087
13.085	0.203557	1.03026	-0.00447651	-0.0114637
13.4805	0.204134	1.03283	-0.00454278	-0.0117898
13.876	0.204729	1.03551	-0.00446697	-0.0115343
14.2715	0.2066475	1.03042	-0.00446878	-0.0114813
14.667	0.209224	1.0325	-0.00445549	-0.0116075
15.0625	0.212159	1.03385	-0.00445464	-0.0113343
15.458	0.214128	1.0337	-0.00444764	-0.01165
15.8535	0.221498	1.03565	-0.00451947	-0.0117968
16.249	0.2173477	1.03991	-0.00445288	-0.0113449
16.6445	0.2135611	1.03663	-0.00447744	-0.0114891
17.04	0.207174	1.03889	-0.00456736	-0.0117622
17.4355	0.207583	1.03977	-0.00450745	-0.0114379
17.8311	0.212057	1.04328	-0.0044858	-0.0115314
18.2266	0.21395	1.04223	-0.00445383	-0.0116255
18.62207	0.218277	1.0418	-0.00445157	-0.0112956
19.0176	0.219739	1.04218	-0.00449889	-0.0116984
19.4131	0.225526	1.0436	-0.00451798	-0.0117234
19.8086	0.236538	1.04456	-0.00443372	-0.0113658
20.2041	0.255044	1.03864	-0.00444051	-0.0115542
20.5996	0.18652	1.04592	-0.004529533	-0.011774
20.9951	0.249443	1.04807	-0.00444168	-0.0115363
21.3906	0.276977	1.04797	-0.00451204	-0.0116591
21.7861	0.273101	1.05112	-0.00450579	-0.0115798
22.1816	0.227759	1.04787	-0.00447859	-0.0112675
22.5771	0.232329	1.04685	-0.00457337	-0.01174129
22.9727	0.274488	1.04943	-0.00444886	-0.0116541
23.3682	0.283348	1.05526	-0.00443371	-0.0113197
23.7637	0.296602	1.051737	-0.00446964	-0.01159953
24.15918	0.283236	1.05165	-0.00449267	-0.0117043
24.5547	0.288616	1.05438	-0.00440325	-0.0115255
24.9502	0.281906	1.05219	-0.004546646	-0.0117496
25.3457	0.292927	1.0574	-0.00445237	-0.0115234
25.7412	0.296263	1.05696	-0.00446317	-0.0113508
26.1367	0.293636	1.06118	-0.0044869	-0.0117514
26.5322	0.29155	1.06089	-0.00445106	-0.011635
26.9277	0.2938897	1.06073	-0.00440374	-0.01131418
27.3232	0.295671	1.06075	-0.00445832	-0.0116167
27.71875	0.304169	1.060909	-0.00446858	-0.0114953
28.1143	0.283822	1.06288	-0.00444109	-0.0115066
28.5098	0.30032	1.061733	-0.004519782	-0.0118222
28.9053	0.322312	1.06483	-0.00440211	-0.0114081
29.3008	0.337352	1.06552	-0.00442549	-0.0113719
29.6963	0.383327	1.06372	-0.00452056	-0.011772
30.0918	0.393729	1.06899	-0.00445886	-0.0115392
30.4873	0.413225	1.07087	-0.0044754	-0.0114161
30.8828	0.408948	1.069849	-0.00448054	-0.01161655
31.27832	0.405815	1.07075	-0.00442948	-0.01135909
31.6738	0.4049907	1.07184	-0.00443243	-0.0119074
32.0693	0.402094	1.07093	-0.00453728	-0.01215
32.4648	0.46776	1.07221	-0.00443532	-0.0116584
32.8604	0.4054	1.07365	-0.00449695	-0.011809
33.2559	0.433892	1.074278	-0.00455651	-0.0121048
33.6514	0.451736	1.07579	-0.004444588	-0.0118017
34.0469	0.464738	1.07615	-0.004458366	-0.0118345
34.4424	0.473403	1.077	-0.004445116	-0.01191847
34.8379	0.48588	1.080994	-0.00443836	-0.0115906
35.2334	0.498096	1.07935	-0.004559142	-0.0120133
35.6289	0.492845	1.08173	-0.004508114	-0.0120488
36.0244	0.512006	1.07934	-0.0044131	-0.0116849
36.4199	0.51148	1.08344	-0.0044931	-0.0118699
36.81543	0.491124	1.08284	-0.00449466	-0.0120722
37.2109	0.522483	1.08173	-0.00445222	-0.0115309
37.6064	0.534849	1.08452	-0.004525	-0.0120983
38.002	0.542458	1.08392	-0.0044768	-0.0118383
38.3975	0.527519	1.08416	-0.00445568	-0.0116379
38.793	0.541763	1.09073	-0.00454135	-0.0120645
39.1885	0.551957	1.08951	-0.004511585	-0.0119366
39.584	0.575744	1.08533	-0.00443251	-0.0113258
39.9795	0.602903	1.09104	-0.00447535	-0.0115832
40.375	0.571518	1.09412	-0.00442899	-0.0115584
40.7705	0.5962863	1.0914	-0.00446388	-0.0114846
41.166	0.569086	1.09318	-0.004508411	-0.0118273
41.5615	0.614853	1.09343	-0.00442428	-0.0114186
41.957	0.616625	1.09365	-0.00444544	-0.01142879
42.3525	0.634835	1.09561	-0.00455295	-0.0117976
42.748	0.648142	1.09588	-0.00451205	-0.0115242
43.1436	0.69965	1.10238	-0.00448192	-0.0113777
43.5391	0.679519	1.09527	-0.00451894	-0.0116732
43.93457	0.708638	1.0951	-0.00446566	-0.0113206
44.3301	0.503186	1.09742	-0.004521674	-0.0115995
44.7256	0.641913	1.09531	-0.00454701	-0.01182
45.1211	0.592921	1.095319	-0.00444012	-0.0114037
45.5166	0.674367	1.09822	-0.00444894	-0.0114985
45.9121	0.841669	1.103631	-0.00456787	-0.0117561
46.3076	0.815381	1.10569	-0.00444967	-0.0114487
46.7031	0.794085	1.10488	-0.00448409	-0.0115386
47.0986	0.780089	1.104061	-0.00448367	-0.0115113
47.4941	0.779206	1.10769	-0.00444427	-0.0112557
47.8896	0.772477	1.1076	-0.00450714	-0.0116593
48.2852	0.804066	1.10832	-0.00449611	-0.0117001
48.6807	0.838799	1.10895	-0.00444833	-0.0113045
49.0762	0.8785876	1.11054	-0.00445185	-0.0113445
49.47168	0.890229	1.11106	-0.00448302	-0.0113988
49.8672	0.917653	1.11181	-0.00445243	-0.011177
50.2627	0.916216	1.11253	-0.00452117	-0.0114787
50.6582	0.928768	1.1144	-0.00446545	-0.0111816
51.0537	0.965742	1.11817	-0.00441999	-0.0109834
51.4492	0.952268	1.11719	-0.004538768	-0.0114672
51.8447	0.958518	1.11468	-0.00448926	-0.0113449
52.2402	1.01781	1.12476	-0.00443284	-0.0110052
52.6357	1.03599	1.12066	-0.00448818	-0.0112872
53.03125	0.992895	1.11886	-0.00449756	-0.0112821
53.4268	1.046719	1.1205	-0.00448695	-0.0111729
53.8223	1.08224	1.120844	-0.00451886	-0.01148174
54.2178	1.09786	1.12189	-0.00448349	-0.0111592
54.6133	1.11089	1.123	-0.00442944	-0.0110131
55.0088	1.13137	1.12425	-0.00451807	-0.0114652
55.4043	1.14545	1.12542	-0.00448971	-0.0113003
55.7998	1.14787	1.12513	-0.00443117	-0.0107087
56.1953	1.13921	1.12596	-0.00453087	-0.0110082
56.59082	1.19511	1.12719	-0.004486334	-0.0108844
56.9863	1.19924	1.12766	-0.0044648	-0.0108793
57.3818	1.34944	1.12892	-0.00452473	-0.0111569
57.7773	1.25256	1.13049	-0.00442903	-0.0108552
58.1729	1.260242	1.13048	-0.0044441	-0.010725
58.5684	1.29119	1.13137	-0.00449157	-0.0111623
58.9639	1.33182	1.13265	-0.00448573	-0.0109338
59.3594	1.36623	1.13357	-0.00442413	-0.0106901
59.7549	1.36987	1.13453	-0.00448584	-0.0110175
60.1504	1.36658	1.13537	-0.004511117	-0.0105741
60.5459	1.39358	1.135879	-0.00452267	-0.0106053
60.9414	1.4071	1.1367	-0.00450679	-0.01091
61.3369	1.4556	1.13795	-0.004445666	-0.0105609
61.7324	1.47923	1.13875	-0.0044523	-0.0104152
62.12793	1.5108	1.14002	-0.00451014	-0.010842
62.5234	1.53782	1.1404	-0.00448412	-0.0106702
62.9189	1.56573	1.14077	-0.00443062	-0.010446
63.3145	1.59299	1.14235	-0.00446898	-0.0107047
63.71	1.60252	1.14329	-0.004466909	-0.0106868
64.1055	1.602147	1.14423	-0.00444824	-0.0105922
64.501	1.63262	1.14487	-0.00451365	-0.0105888
64.8965	1.64745	1.14544	-0.004394779	-0.0103141
65.292	1.70052	1.14748	-0.00439982	-0.0100982
65.6875	1.703813	1.14765	-0.00446456	-0.0105253
66.083	1.73335	1.14917	-0.00449854	-0.0104203
66.4785	1.74868	1.14951	-0.00437523	-0.0100992
66.874	1.77935	1.1505	-0.0044545	-0.0103885
67.2695	1.8075	1.15182	-0.004495949	-0.0101967
67.665	1.82199	1.15251	-0.00444443	-0.0100102
68.0605	1.83337	1.15303	-0.00446261	-0.010231
68.4561	1.852356	1.15351	-0.00443666	-0.0100935
68.8516	1.89699	1.154933	-0.00436799	-0.009740958
69.24707	1.93533	1.1553	-0.00445932	-0.0102142
69.6426	1.96316	1.15639	-0.00447723	-0.0102254
70.0381	1.98434	1.15795	-0.00444559	-0.00984964
70.4336	2.00392	1.15896	-0.00441812	-0.0100667
70.8291	2.01945	1.15916	-0.00453181	-0.0102308
71.2246	2.05549	1.16082	-0.00443166	-0.00964875
71.6201	2.08027	1.16106	-0.00447067	-0.00974856
72.0156	2.0923	1.16202	-0.00442944	-0.009768541
72.4111	2.10754	1.16222	-0.00438985	-0.00949069
72.8066	2.16881	1.16338	-0.00450983	-0.0098268
73.2021	2.20925	1.16458	-0.00445564	-0.00995085
73.5977	2.23988	1.16552	-0.0044233	-0.00949226
73.9932	2.26283	1.166085	-0.00443303	-0.00935966
74.3887	2.28779	1.16735	-0.00450242	-0.00963215
74.78418	2.31882	1.16836	-0.00446972	-0.00936904
75.1797	2.35688	1.16923	-0.00442729	-0.00927689
75.5752	2.37546	1.17032	-0.00445879	-0.00947212
75.9707	2.37405	1.1709	-0.00447496	-0.00919468
76.3662	2.37155	1.17105	-0.00447459	-0.00939233
76.7617	2.43401	1.17205	-0.00450302	-0.00935945
77.1572	2.45691	1.17289	-0.00441712	-0.00889519
77.5527	2.518234	1.17424	-0.004465647	-0.00892829
77.9482	2.553158	1.17528	-0.00447878	-0.00930436
78.34375	2.58673	1.17634	-0.00446073	-0.00907318
78.7393	2.60235	1.17689	-0.00439506	-0.00856685
79.1348	2.64162	1.17777	-0.00443753	-0.00885589
79.5303	2.66082	1.17879	-0.00443857	-0.008776864
79.9258	2.66351	1.17956	-0.00446659	-0.00875013
80.3213	2.64562	1.1801	-0.00449071	-0.00906991
80.7168	2.7031	1.18081	-0.00438991	-0.00873985
81.1123	2.719075	1.181926	-0.00442911	-0.00858069
81.5078	2.798022	1.18314	-0.00448088	-0.00866583
81.90332	2.8429	1.184232	-0.004453	-0.00860201
82.2988	2.88836	1.18536	-0.00442038	-0.00823384
82.6943	2.91788	1.186275	-0.00447087	-0.00855419
83.0898	2.9516	1.18761	-0.00445854	-0.00864693
83.4854	2.98061	1.18762	-0.00445756	-0.00808644
83.8809	2.99543	1.188656	-0.00447726	-0.00828309
84.2764	2.98575	1.18953	-0.00444982	-0.00820683
84.6719	3.03943	1.19005	-0.0043905	-0.00789345
85.0674	3.065197	1.19036	-0.00449425	-0.00832304
85.4629	3.11979	1.19247	-0.00451124	-0.00807427
85.8584	3.153054	1.19317	-0.0044213	-0.00768619
86.2539	3.18412	1.19422	-0.00443206	-0.00779243
86.6494	3.21408	1.19509	-0.00447704	-0.00812958
87.0449	3.2602	1.195366	-0.00444863	-0.0078228
87.44043	3.31189	1.19721	-0.00443376	-0.00771974
87.8359	3.33521	1.19764	-0.00445463	-0.00765005
88.2314	3.337424	1.19838	-0.00441834	-0.00742057
88.627	3.36684	1.199068	-0.00444112	-0.00755569
89.0225	3.39903	1.19992	-0.00448484	-0.00786209
89.418	3.46658	1.200833	-0.00440871	-0.00741312
89.8135	3.47553	1.20228	-0.00443262	-0.00735733
90.209	3.50531	1.20315	-0.00451768	-0.00741021
90.6045	3.53676	1.20411	-0.00448664	-0.00729129
91	3.5666	1.20483	-0.00440941	-0.0070071
91.3955	3.615324	1.20617	-0.00443625	-0.00730668
91.791	3.6328	1.20705	-0.00452911	-0.0074354
92.1865	3.64219	1.20646	-0.00444542	-0.00715368
92.582	3.66812	1.20818	-0.00449087	-0.00732754
92.9775	3.72597	1.20878	-0.00443233	-0.00694124
93.373	3.78506	1.2101	-0.00437292	-0.00665033
93.7686	3.82449	1.21105	-0.00448203	-0.00703013
94.1641	3.867837	1.2119	-0.0045298	-0.0068967
94.55957	3.88973	1.21296	-0.00442306	-0.00646195
94.9551	3.91173	1.21334	-0.004443638	-0.00657308
95.3506	3.95943	1.21488	-0.00448895	-0.00684504
95.7461	3.983655	1.21591	-0.00446991	-0.00667371
96.1416	3.9893	1.21637	-0.00442542	-0.00652493
96.5371	4.001142	1.21665	-0.0044537	-0.00675099
96.9326	4.05889	1.217672	-0.00444053	-0.00630179
97.3281	4.10518	1.21879	-0.0044526	-0.00631654
97.7236	4.16932	1.21967	-0.00447323	-0.0065954
98.1191	4.20642	1.22046	-0.00444068	-0.006006605
98.5146	4.247705	1.22171	-0.00441999	-0.00582824
98.9102	4.27366	1.22274	-0.00448738	-0.00618472
99.3057	4.33134	1.22388	-0.00447599	-0.00623611
99.7012	4.58005	1.22467	-0.00440982	-0.00523791
100.097	4.50552	1.22459	-0.00445404	-0.005444
100.492	4.4246	1.22572	-0.0044924	-0.00597572
100.8877	4.36011	1.227388	-0.00444801	-0.00570398
101.2832	4.40578	1.22693	-0.00444226	-0.00569988
101.679	4.49486	1.22818	-0.00444639	-0.00576592
102.074	4.55134	1.22993	-0.004443313	-0.00518877
102.47	4.80094	1.22807	-0.00447305	-0.00545329
102.865	4.95838	1.2317	-0.004497705	-0.00510617
103.261	4.955749	1.232116	-0.00446438	-0.00467923
103.656	4.99442	1.23437	-0.00443312	-0.00463542
104.052	4.95167	1.233922	-0.00452765	-0.00503538
104.447	4.84697	1.23531	-0.00443525	-0.00486446
104.843	4.86294	1.23559	-0.004437332	-0.00461078
105.238	4.87902	1.23529	-0.004450703	-0.00495313
105.634	4.907115	1.23755	-0.00446147	-0.00490867
106.0293	4.91225	1.23818	-0.00446254	-0.00476358
106.4248	4.93029	1.23968	-0.00455021	-0.005032
106.82	5.13477	1.23984	-0.00443857	-0.00478983
107.216	5.21779	1.24148	-0.00440431	-0.00422501
107.611	5.27302	1.24486	-0.00453977	-0.00472384
108.007	5.26768	1.245797	-0.00448917	-0.00467525
108.402	5.19289	1.24316	-0.0043583	-0.0042979
108.798	5.15503	1.24371	-0.00446285	-0.00483896
109.193	5.158668	1.2452	-0.004459138	-0.00493694
109.589	5.25329	1.24567	-0.00440238	-0.004758
109.984	5.32305	1.24681	-0.00447192	-0.00471272
110.38	5.36124	1.24832	-0.00442241	-0.00449386
110.775	5.42315	1.24937	-0.00437454	-0.00424746
111.1709	5.45465	1.24956	-0.00443494	-0.00498503
111.566	5.52213	1.2507	-0.00446467	-0.00498834
111.962	5.57523	1.251915	-0.00437914	-0.00462857
112.357	5.58298	1.25254	-0.00442677	-0.00481043
112.753	5.5713	1.25277	-0.00449666	-0.005346742
113.148	5.6683	1.25402	-0.00439893	-0.00475705
113.544	5.72645	1.25509	-0.00442217	-0.00496175
113.939	5.76965	1.25658	-0.00445183	-0.00478239
114.335	5.81104	1.25767	-0.0044181	-0.00453384
114.73	5.853992	1.25856	-0.00448956	-0.00499728
115.126	5.90688	1.25879	-0.004488179	-0.00497987
115.521	6.24778	1.25952	-0.00441806	-0.00395793
115.917	6.28131	1.26028	-0.00442328	-0.00418707
116.3125	6.248	1.26165	-0.00447336	-0.00438183
116.708	6.22864	1.26183	-0.00444016	-0.00441912
117.104	6.20455	1.26422	-0.00448229	-0.004596449
117.499	6.42077	1.26276	-0.00444114	-0.00416444
117.895	6.46698	1.26436	-0.00440994	-0.00393197
118.29	6.49226	1.270189	-0.00451305	-0.004300789
118.686	6.44967	1.26654	-0.00448131	-0.00434219
119.081	6.43475	1.26878	-0.0044285	-0.00400605
119.477	6.52057	1.26815	-0.00444219	-0.00415449
119.872	6.47726	1.27008	-0.004500621	-0.00438587
120.268	6.44989	1.270396	-0.00443274	-0.00415175
120.663	6.4362	1.27173	-0.00446915	-0.00423818
121.059	6.46043	1.27192	-0.0044988	-0.00422436
121.4541	6.523	1.27253	-0.00442388	-0.0039005
121.85	6.76461	1.276109	-0.00452921	-0.00430241
122.245	6.68186	1.27474	-0.00454303	-0.00403385
122.641	6.71181	1.27561	-0.00444646	-0.00364964
123.036	6.77576	1.276333	-0.00449248	-0.0039023
123.432	6.80479	1.27726	-0.00455935	-0.00408558
123.827	6.877099	1.27873	-0.00444627	-0.00346315
124.223	6.90323	1.2797	-0.00449008	-0.00362626
124.618	6.92806	1.28023	-0.00450556	-0.0036321
125.014	6.92077	1.28061	-0.00443781	-0.00329238
125.409	7.017323	1.28122	-0.00449498	-0.00370055
125.805	7.071136	1.28229	-0.00450278	-0.003752531
126.2002	7.291646	1.27961	-0.004417995	-0.00312819
126.5957	7.47088	1.28408	-0.00447148	-0.00264341
126.991	7.45258	1.28534	-0.00448961	-0.00284147
127.387	7.43776	1.28544	-0.00444842	-0.00261438
127.782	7.42728	1.28793	-0.00452382	-0.00311439
128.178	7.42146	1.28888	-0.00449299	-0.00296859
128.573	7.4233	1.2895	-0.00443974	-0.002721
128.969	7.4369	1.29067	-0.00453089	-0.00317667
129.364	7.44674	1.28984	-0.00445052	-0.00310261
129.76	7.55485	1.29214	-0.00441881	-0.00274456
130.155	7.607523	1.29115	-0.004488105	-0.00275911
130.551	7.62029	1.29333	-0.00451095	-0.0027544
130.946	7.70073	1.29417	-0.00448814	-0.00260938
131.3418	7.74381	1.29536	-0.00452278	-0.0026518
131.7373	7.81946	1.29621	-0.004417757	-0.00227404
132.133	7.88039	1.29773	-0.00444346	-0.00219275
132.528	7.91518	1.298052	-0.00448814	-0.00229032
132.924	7.92041	1.29927	-0.00447274	-0.00209016
133.319	7.94015	1.2995	-0.004451124	-0.00215825
133.715	8.00145	1.30035	-0.004496715	-0.0021611
134.11	8.093	1.30188	-0.0045088	-0.00197264
134.506	8.11092	1.30191	-0.00446945	-0.00209544
134.901	8.19488	1.3031	-0.00454449	-0.00207586
135.297	8.23619	1.30411	-0.0044434	-0.00161645
135.692	8.30138	1.30505	-0.00449123	-0.00171028
136.088	8.37021	1.306311	-0.00453829	-0.00199703
136.4834	8.41731	1.306617	-0.00445749	-0.00152443
136.879	8.42787	1.3079	-0.00443495	-0.0014535
137.274	8.42947	1.30776	-0.00448744	-0.00158278
137.67	8.537322	1.30941	-0.004464	-0.0012681
138.065	8.58157	1.31038	-0.00450442	-0.00140117
138.461	8.63389	1.31095	-0.0045229	-0.00150952
138.856	8.69993	1.3121	-0.00444894	-0.00102753
139.252	8.75145	1.3135	-0.00447084	-0.0011708
139.647	8.79508	1.31401	-0.00454898	-0.00133569
140.043	8.86803	1.3151	-0.0045084	-0.00116422
140.438	8.91311	1.31651	-0.004497597	-0.000950127
140.834	8.931262	1.31715	-0.00449942	-0.000990556
141.229	8.92604	1.31739	-0.00444846	-0.000708872
141.625	9.0083	1.31857	-0.00447284	-0.00105319
142.021	9.0454	1.31896	-0.00450331	-0.00108783
142.416	9.15345	1.32035	-0.00443049	-0.000466867
142.812	9.20137	1.32137	-0.00447484	-0.000680914
143.207	9.48024	1.324784	-0.00448398	0.000157403
143.603	9.33815	1.32201	-0.00446303	5.41124e-05
143.998	9.34754	1.32375	-0.004540971	-0.000190487
144.394	9.38992	1.32443	-0.00447516	6.8863e-05
144.789	9.45791	1.32627	-0.00438533	0.000193432
145.185	9.45194	1.3266	-0.00451781	-0.000189979
145.58	9.52054	1.32755	-0.00448132	-5.57825e-05
145.976	9.55931	1.32774	-0.00444753	0.000487725
146.371	9.65438	1.32967	-0.00447574	0.000183025
146.7666	9.70212	1.33063	-0.00445193	0.0005377921
147.162	9.76533	1.331176	-0.004441889	0.000598822
147.558	9.81211	1.33215	-0.00451038	0.000291847
147.953	9.91208	1.33357	-0.004463	0.00100478
148.349	9.95305	1.33466	-0.00446978	0.00108778
148.744	9.97455	1.33543	-0.00451928	0.000967084
149.14	9.99969	1.33613	-0.00445869	0.00117806
149.535	10.0022	1.336	-0.00444091	0.00140645
149.931	10.0858	1.33716	-0.00447196	0.00109084
150.326	10.1435	1.33769	-0.00447087	0.00129669
150.722	10.24179	1.33896	-0.00448668	0.00149439
151.117	10.30967	1.33916	-0.00451375	0.0012062
151.5127	10.3759	1.340234	-0.00445748	0.00191763
151.9082	10.42647	1.34168	-0.00449404	0.00185611
152.304	10.4997	1.34342	-0.00452108	0.00181164
152.699	10.5678	1.34401	-0.00448464	0.00208439
153.095	10.5808	1.34508	-0.00446175	0.00243194
153.49	10.54606	1.34472	-0.00448009	0.00200512
153.886	10.586	1.34501	-0.00444005	0.00259958
154.281	10.62659	1.34587	-0.004486891	0.00227353
154.677	10.70729	1.34697	-0.00452437	0.00241278
155.072	10.7628	1.34785	-0.00443669	0.00283506
155.468	10.8161	1.34906	-0.00447242	0.00269864
155.863	10.8624	1.34975	-0.00449081	0.00247844
156.259	11.0011	1.34987	-0.00443032	0.00305672
156.6543	11.0497	1.35267	-0.00455009	0.00315144
157.0498	11.0345	1.35269	-0.004493597	0.0030219
157.445	11.0349	1.35246	-0.00445376	0.0032444
157.841	11.1607	1.3549	-0.00452024	0.0031389
158.236	11.2033	1.35521	-0.00451476	0.00316765
158.632	11.2867	1.35678	-0.00444175	0.003829041
159.027	11.3317	1.3568	-0.00449437	0.0038096
159.423	11.4553	1.3582	-0.0045248	0.00416739
159.818	11.4794	1.35876	-0.00450454	0.00426143
160.214	11.7351	1.36411	-0.00454135	0.00426017
160.609	11.6375	1.36191	-0.0044636	0.00461251
161.005	11.6275	1.36225	-0.00442401	0.00474105
161.4	11.6158	1.36236	-0.00458971	0.00437723
161.7959	11.6816	1.36322	-0.00452125	0.00453873
162.191	11.7575	1.36439	-0.00441149	0.00500943
162.587	12.0906	1.36714	-0.00451658	0.00535256
162.982	11.9252	1.36594	-0.00445907	0.0052457
163.378	11.9691	1.36738	-0.00447309	0.00514884
163.773	12.0578	1.36851	-0.00454059	0.005166064
164.169	12.1237	1.36894	-0.00442684	0.005622555
164.564	12.2165	1.36671	-0.00447198	0.00593791
164.96	12.2188	1.37106	-0.00453272	0.00551228
165.355	12.4787	1.37114	-0.004463823	0.0060483
165.751	12.4926	1.3713	-0.00446452	0.00648485
166.146	12.4036	1.37873	-0.00450215	0.00627759
166.542	12.3882	1.37668	-0.00444938	0.00653477
166.9375	12.4774	1.382634	-0.00453294	0.00631318
167.333	12.3567	1.37283	-0.00450296	0.005800386
167.729	12.3058	1.37349	-0.00446882	0.00623442
168.124	12.4332	1.3726	-0.00447544	0.0061312
168.52	12.41554	1.38291	-0.00456887	0.00609854
168.915	12.5195	1.37945	-0.00451147	0.00642901
169.311	12.5385	1.37971	-0.00449871	0.00637232
169.706	12.428	1.38403	-0.00445289	0.00632197
170.102	12.547	1.38447	-0.00442691	0.00660306
170.497	12.6037	1.382	-0.00451539	0.00652946
170.893	12.638	1.3827	-0.00447312	0.00646789
171.288	12.6465	1.38763	-0.00445962	0.0068503
171.684	12.8403	1.38756	-0.00449824	0.0069506
172.0791	12.7751	1.39118	-0.00454383	0.00673762
172.475	12.8468	1.39266	-0.00444394	0.00700601
172.87	12.8408	1.38948	-0.00450507	0.00715778
173.266	12.9224	1.39312	-0.00447697	0.00726711
173.661	12.8378	1.38884	-0.00447466	0.00782129
174.057	12.9239	1.387712	-0.00454032	0.00704694
174.452	12.9738	1.391488	-0.00448721	0.00744779
174.848	13.086	1.39441	-0.00445265	0.00778442
175.243	13.1595	1.394161	-0.00447044	0.0078077
175.639	13.1042	1.3958	-0.0045112	0.00777899
176.034	13.1887	1.39739	-0.00447335	0.007885146
176.43	13.43272	1.39592	-0.00452971	0.008208124
176.8252	13.4365	1.39404	-0.00442415	0.00854131
177.2207	13.41626	1.3949	-0.00449031	0.00905733
177.616	13.4258	1.39626	-0.004505137	0.00859934
178.012	13.6289	1.4043	-0.004500384	0.0090815
178.407	13.5545	1.40103	-0.00441545	0.00898614
178.803	13.6103	1.40161	-0.00442807	0.00899541
179.198	13.917	1.407603	-0.0044743	0.00968923
179.594	13.885	1.40639	-0.00442509	0.00971565
179.989	13.8599	1.40364	-0.00452224	0.00942786
180.385	13.8461	1.40765	-0.00442014	0.00981469
180.78	13.8945	1.40524	-0.0044074	0.009896148
181.176	14.0265	1.40784	-0.00449957	0.00983298
181.571	14.0806	1.40992	-0.00449322	0.0099819
181.9668	14.00661	1.40539	-0.00443179	0.01021901
182.3623	14.0514	1.41232	-0.00445719	0.00992093
182.758	14.0755	1.41153	-0.00444198	0.010373
183.153	14.141	1.41068	-0.00448563	0.0103619
183.549	14.1247	1.41265	-0.00452258	0.0100227
183.944	14.18609	1.41467	-0.00445856	0.0104344
184.34	14.2004	1.41537	-0.00445915	0.0105519
184.735	14.2547	1.41599	-0.00455126	0.0104891
185.131	14.4564	1.41517	-0.00450666	0.0108764
185.526	14.5148	1.416503	-0.00440638	0.0111266
185.922	14.5007	1.41534	-0.00449907	0.0111622
186.317	14.6555	1.41913	-0.0045033	0.0114049
186.713	14.61697	1.41906	-0.00450894	0.0116142
187.1084	14.6994	1.42093	-0.00453861	0.0116279
187.504	14.8601	1.42222	-0.004465349	0.0122156
187.899	14.9584	1.42148	-0.00444211	0.0127442
188.295	15.0344	1.42532	-0.00450908	0.0122839
188.69	15.3274	1.42102	-0.00450838	0.012913
189.086	15.3651	1.42757	-0.00445855	0.0135897
189.481	15.4355	1.42752	-0.00450481	0.0137016
189.877	15.4241	1.42419	-0.00451572	0.0134742
190.272	15.4753	1.4309	-0.00448357	0.0140825
190.668	15.4969	1.42811	-0.00449619	0.0140788
191.063	15.5407	1.42828	-0.00451697	0.0139684
191.459	15.5415	1.4291	-0.00440501	0.0145459
191.854	15.5692	1.41944	-0.00447341	0.0143078
192.25	15.5692	1.43235	-0.00448392	0.0140382
192.646	15.57621	1.43391	-0.004416184	0.0144826
193.041	15.6166	1.43585	-0.00445331	0.0144604
193.437	15.7709	1.43354	-0.00447927	0.0147447
193.832	15.8426	1.43677	-0.00445154	0.0148932
194.228	15.9981	1.43126	-0.00446255	0.0157874
194.623	15.98972	1.43989	-0.00447543	0.0154599
195.019	15.9706	1.442224	-0.00444574	0.0155057
195.414	15.96245	1.43839	-0.00447125	0.015584
195.81	15.9671	1.44229	-0.00448315	0.0153122
196.205	15.9454	1.440779	-0.00444852	0.015563
196.601	15.9791	1.442992	-0.00442867	0.0158056
196.996	15.9932	1.44255	-0.00449995	0.0156651
197.3916	16.1987	1.44311	-0.0044881	0.0160159
197.787	16.276	1.447198	-0.00440163	0.0166754
198.183	16.3487	1.4326	-0.00444122	0.01646948
198.578	16.44619	1.45005	-0.00455297	0.0169121
198.974	16.4189	1.4465	-0.00440124	0.0171475
199.369	16.3318	1.44855	-0.00444199	0.0170197
199.765	16.4054	1.45034	-0.00447518	0.0170226
200.16	16.4359	1.4514	-0.00438837	0.0173428
200.556	16.4706	1.45146	-0.00444524	0.01697899
200.951	16.51296	1.45259	-0.00442576	0.0171742
201.347	16.6173	1.4525	-0.004376892	0.0175613
201.742	16.6177	1.45294	-0.0044099	0.0177461
202.1377	16.5793	1.4546	-0.004472631	0.0174396
202.5332	16.6918	1.45719	-0.00442441	0.0180288
202.929	16.88509	1.45556	-0.00435741	0.018364
203.324	16.9476	1.4574	-0.00445635	0.0184275
203.72	17.0335	1.45106	-0.00440026	0.0193651
204.115	17.0051	1.45772	-0.0044454	0.0191148
204.511	17.0408	1.46137	-0.00448674	0.0188692
204.906	17.0923	1.46312	-0.00436285	0.0197138
205.302	17.2004	1.46314	-0.00443394	0.0199468
205.697	17.1299	1.46214	-0.004525763	0.0202168
206.093	17.2198	1.46311	-0.00448289	0.0203967
206.488	17.3296	1.46184	-0.00442013	0.0209133
206.884	17.5487	1.46518	-0.004500303	0.0209107
207.2793	17.4808	1.46837	-0.00445555	0.0213588
207.6748	17.5207	1.46904	-0.00446299	0.0216316
208.07	17.5879	1.46922	-0.00449004	0.0213364
208.466	17.6322	1.468331	-0.00447073	0.0220392
208.861	17.6872	1.469139	-0.00440379	0.0224785
209.257	18.1244	1.47885	-0.00447642	0.0230574
209.652	18.0351	1.47037	-0.00446802	0.0234296
210.048	17.8003	1.4713	-0.00441943	0.0236922
210.443	17.9795	1.47439	-0.0044611	0.0239879
210.839	18.0119	1.4741	-0.00442571	0.0246233
211.234	18.025	1.47574	-0.004411526	0.0247727
211.63	18.04842	1.47076	-0.00450526	0.0247914
212.025	18.1735	1.47708	-0.00441439	0.0257057
212.4209	18.2043	1.47899	-0.0044274	0.0261784
212.816	18.3739	1.48127	-0.00449858	0.0263402
213.212	18.4485	1.48248	-0.00449636	0.0275768
213.607	18.4585	1.48219	-0.00441734	0.0285429
214.003	18.417	1.4843	-0.00448555	0.0286198
214.398	18.4233	1.48316	-0.00451518	0.0287948
214.794	18.4713	1.4816	-0.00444541	0.0292918
215.189	18.466	1.4842	-0.004494553	0.0294859
215.585	18.4472	1.48472	-0.00443454	0.0298761
215.98	18.4502	1.48721	-0.00435581	0.0301266
216.376	18.4652	1.483881	-0.00444349	0.0300579
216.771	18.5153	1.49082	-0.00446701	0.030244
217.167	18.9016	1.48839	-0.00443764	0.03125542
217.5625	18.2799	1.48625	-0.00443114	0.0310797
217.958	18.7765	1.4895	-0.00450631	0.0319127
218.354	18.6051	1.48803	-0.00443639	0.0329639
218.749	18.95179	1.483843	-0.00441471	0.0341908
219.145	19.0356	1.49611	-0.00446247	0.0361736
219.54	18.9372	1.49036	-0.00438741	0.0370304
219.936	18.91147	1.4967	-0.00442509	0.0368642
220.331	18.921	1.49774	-0.0044851	0.0368754
220.727	18.9204	1.49655	-0.00441249	0.0373521
221.122	19.1126	1.49744	-0.00439514	0.0376431
221.518	18.8672	1.4963	-0.00446115	0.0375792
221.913	18.8274	1.49918	-0.00440556	0.0377626
222.309	19.1083	1.50096	-0.00434934	0.038305
222.7041	19.2723	1.49725	-0.00442443	0.0383669
223.1	19.3451	1.5013	-0.00445392	0.0386651
223.495	19.524	1.50245	-0.00441406	0.0391059
223.891	19.44491	1.502311	-0.00445289	0.03915206
224.286	19.4979	1.50782	-0.00441279	0.0393084
224.682	19.4775	1.50564	-0.00436609	0.0395482
225.077	19.5687	1.50603	-0.0044498	0.03917525
225.473	19.4749	1.50683	-0.00445252	0.0394031
225.868	19.49387	1.50957	-0.00440703	0.0394869
226.264	19.4588	1.507624	-0.00443387	0.03972213
226.659	19.4312	1.50992	-0.00450679	0.0390644
227.055	19.596	1.51129	-0.00446564	0.0395991
227.4502	19.527	1.51128	-0.00442313	0.0398417
227.8457	19.4509	1.50977	-0.00447771	0.0395246
228.241	19.4176	1.51461	-0.00446216	0.0395936
228.637	19.4057	1.51509	-0.004433169	0.0397045
229.032	19.4255	1.51564	-0.00448908	0.0394351
229.428	19.40778	1.5155	-0.00442385	0.0396066
229.823	19.7004	1.51536	-0.00439313	0.0398747
230.219	19.8141	1.518883	-0.004474245	0.0394704
230.614	19.8636	1.51865	-0.004464779	0.0393935
231.01	19.7762	1.51892	-0.004398752	0.0398355
231.405	19.701	1.518725	-0.00442145	0.0397168
231.801	19.6616	1.52302	-0.00452831	0.0397479
232.196	19.6376	1.52442	-0.00444384	0.0399383
232.5918	19.6341	1.5238	-0.00439736	0.040164
232.9873	19.6122	1.52459	-0.004427264	0.03985085
233.383	19.5658	1.52349	-0.004455531	0.0398145
233.778	19.6009	1.5247	-0.00445595	0.0399937
234.174	19.9982	1.52981	-0.00440932	0.0394824
234.569	19.9845	1.5309	-0.00445409	0.0395849
234.965	19.7709	1.52889	-0.004403281	0.0402108
235.36	19.7513	1.52844	-0.00446148	0.0398346
235.756	19.7505	1.53076	-0.00449367	0.0397387
236.151	19.8115	1.52796	-0.00437632	0.0401006
236.547	19.98476	1.53371	-0.00444741	0.0400427
236.942	19.7072	1.5334	-0.0044522	0.0397186
237.338	19.6686	1.53418	-0.00446747	0.0399388
237.7334	19.7307	1.53366	-0.00442793	0.0401145
238.129	19.831	1.53514	-0.00448195	0.0398306
238.524	20.003	1.53716	-0.00442036	0.0396324
238.92	19.9965	1.53745	-0.00443609	0.0399575
239.315	20.0046	1.53895	-0.00445851	0.0396232
239.711	20.0296	1.53946	-0.00440948	0.0399531
240.106	20.0596	1.54046	-0.00438653	0.0401539
240.502	20.1035	1.5424	-0.00449169	0.0397256
240.897	20.0938	1.5428	-0.00442343	0.0397269
241.293	20.0557	1.54346	-0.00438735	0.0401092
241.688	20.0292	1.54368	-0.00439281	0.0399248
242.084	20.0908	1.54472	-0.0044348	0.0396289
242.479	20.14883	1.5463	-0.0043808	0.0399113
242.875	20.1627	1.54683	-0.00440653	0.0399643
243.271	20.163	1.54707	-0.00443921	0.0398272
243.666	20.2179	1.54785	-0.00442729	0.0404149
244.062	20.2695	1.54919	-0.00442242	0.03988377
244.457	20.2706	1.55045	-0.00446038	0.0396184
244.853	20.2608	1.55156	-0.00437222	0.0400958
245.248	20.2364	1.55197	-0.00443561	0.040078
245.644	20.2132	1.55269	-0.00450234	0.0396888
246.039	20.2542	1.55331	-0.00447802	0.039899
246.435	20.2287	1.5534	-0.00439243	0.0400871
246.83	20.322	1.55569	-0.00447251	0.0398054
247.226	20.3016	1.55606	-0.00444242	0.0398961
247.621	20.3412	1.55668	-0.00443209	0.0399416
248.0166	20.3647	1.55775	-0.00451202	0.03959864
248.412	20.4192	1.55909	-0.00444912	0.039976
248.808	20.4209	1.5604	-0.00443538	0.0401218
249.203	20.3898	1.56147	-0.00447377	0.0396818
249.599	20.3269	1.56151	-0.00446715	0.03978036
249.994	20.3822	1.56141	-0.00441398	0.0400629
250.39	20.383	1.56257	-0.00446976	0.0398291
250.785	20.4767	1.56435	-0.00445306	0.0398401
251.181	20.4952	1.56509	-0.00444444	0.0402898
251.576	20.4827	1.56596	-0.00447933	0.0402723
251.972	20.495	1.566772	-0.0043995	0.0409104
252.367	20.551	1.56772	-0.0043666	0.0408498
252.7627	20.5721	1.56918	-0.00454048	0.04036811
253.1582	20.5484	1.57012	-0.00449429	0.040101
253.554	20.4773	1.57	-0.00438661	0.040427
253.949	20.5353	1.57054	-0.00444939	0.0401384
254.345	20.5443	1.57149	-0.00447988	0.039732
254.74	20.6289	1.57368	-0.00444869	0.0399965
255.136	20.6044	1.573975	-0.00443313	0.039678
255.531	20.6225	1.57491	-0.00442323	0.03960697
255.927	20.6381	1.5753	-0.00439242	0.03983245
256.322	20.6819	1.5765	-0.00446123	0.03938682
256.718	20.7105	1.57778	-0.00442092	0.0391152
257.113	20.6868	1.57937	-0.00440977	0.0391736
257.509	20.6329	1.57935	-0.00441065	0.0389238
257.9043	20.6724	1.58018	-0.00447264	0.03880851
258.2998	20.6905	1.58063	-0.00439561	0.03904
258.695	20.7713	1.58261	-0.00449555	0.0388734
259.091	20.703	1.58245	-0.00439074	0.0392841
269.081	20.5084	1.583099	-0.00437646	-0.025412
269.477	20.5185	1.5838	-0.00443793	-0.02540312
269.872	20.5076	1.5835	-0.00441855	-0.0251584
270.268	20.6237	1.5854	-0.004396942	-0.0246264
270.663	20.6812	1.58596	-0.0044399	-0.0248021
271.059	20.7486	1.5869	-0.00446629	-0.0244481
271.4541	20.7906	1.58783	-0.00436674	-0.0234681
271.85	20.8048	1.58879	-0.00446585	-0.0230442
272.245	20.8333	1.58996	-0.00449604	-0.0227347
272.641	20.90624	1.591357	-0.00442768	-0.021848
273.036	20.9193	1.59256	-0.00440185	-0.0205447
273.432	20.8691	1.59301	-0.00443866	-0.0201108
273.827	20.82267	1.59259	-0.00442032	-0.0193647
274.223	20.9538	1.59443	-0.00443452	-0.018771
274.618	20.89221	1.59425	-0.00448315	-0.0182033
275.014	20.9748	1.59581	-0.00444784	-0.0169342
275.409	20.9638	1.59652	-0.00437991	-0.015791
275.805	20.9822	1.59789	-0.00447732	-0.01533552
276.2002	21.0947	1.59437	-0.00445148	-0.0144285
276.5957	21.1891	1.59903	-0.00437898	-0.0110498
276.991	21.1125	1.60258	-0.00447169	-0.00876634
277.387	21.011	1.60292	-0.00447919	-0.00779974
277.782	20.919	1.60265	-0.00443673	-0.00716375
278.178	20.9037	1.60291	-0.00437999	-0.0068195
278.573	20.899	1.60376	-0.00442169	-0.0067172
278.969	20.9265	1.604	-0.00438815	-0.00622588
279.364	21.1546	1.60615	-0.0044269	-0.00487638
279.76	21.1752	1.60751	-0.0044622	-0.00391617
280.155	21.2542	1.60847	-0.00443517	-0.00231722
280.551	21.1595	1.60706	-0.00442422	-0.00104844
280.946	21.1505	1.60771	-0.00445185	-0.00052379
281.3418	21.18849	1.6103	-0.00445217	0.000486518
281.7373	21.1212	1.60989	-0.00441926	0.00140938
282.133	21.0657	1.60887	-0.00443766	0.00175931
282.528	21.20351	1.61334	-0.004464061	0.00284146
282.924	21.1332	1.61335	-0.00442448	0.00370875
283.319	21.1028	1.61498	-0.00445875	0.00377548
283.715	21.1514	1.61295	-0.00444078	0.00451625
284.11	21.20192	1.61661	-0.00440618	0.00566535
284.506	21.221	1.61848	-0.00447275	0.00622979
284.901	21.21925	1.6153	-0.00444655	0.00675281
285.297	21.3206	1.61787	-0.00441701	0.00777476
285.692	21.4497	1.61997	-0.00445522	0.00920136
286.088	21.3857	1.62226	-0.00451913	0.00977264
286.4834	21.2783	1.61884	-0.00445522	0.01072997
286.879	21.0582	1.61777	-0.00442186	0.011951
287.274	21.2766	1.62302	-0.00441596	0.0123722
287.67	21.3693	1.62293	-0.00444704	0.013778
288.065	21.3884	1.62925	-0.00447114	0.0145957
288.461	21.2933	1.62833	-0.00448547	0.0152392
288.856	21.3459	1.62686	-0.004436343	0.0168626
289.252	21.263	1.62999	-0.00439702	0.01728981
289.647	21.204	1.62781	-0.00449519	0.0171554
290.043	21.1841	1.62965	-0.00446175	0.01724799
290.438	21.2414	1.63062	-0.00442392	0.0178615
290.834	21.4643	1.63066	-0.00448362	0.0187982
291.229	21.3207	1.63187	-0.00449236	0.0193234
291.625	21.295	1.6334	-0.00446963	0.01985845
292.021	21.3662	1.63397	-0.00442166	0.020341
292.416	21.5087	1.63587	-0.00440175	0.0212487
292.812	21.4764	1.63733	-0.00437717	0.0236853
293.207	21.4138	1.63793	-0.00443925	0.023955
293.603	21.3815	1.63828	-0.00443258	0.0244313
293.998	21.35651	1.63838	-0.00441599	0.02521608
294.394	21.39296	1.63935	-0.00441323	0.0256978
294.789	21.4504	1.64007	-0.0044589	0.0259957
295.185	21.4544	1.641257	-0.00444625	0.0271574
295.58	21.4717	1.6424	-0.00442152	0.0277629
295.976	21.4844	1.64235	-0.00441555	0.028192
296.371	21.5033	1.64424	-0.00436134	0.029455
296.7666	21.5547	1.64599	-0.00443672	0.030105
297.162	21.5265	1.64673	-0.00446805	0.0307433
297.558	21.4718	1.64711	-0.00435515	0.0321381
297.953	21.4312	1.64691	-0.00443745	0.0323638
298.349	21.5056	1.64817	-0.00448505	0.0326473
298.744	21.5621	1.64898	-0.00441914	0.0335499
299.14	21.5878	1.65044	-0.00438911	0.0349255
299.535	21.5848	1.65104	-0.00443929	0.0356096
299.931	21.6131	1.65195	-0.0044171	0.0370539
300.326	21.61039	1.65283	-0.00444315	0.0377221
300.722	21.6716	1.65433	-0.00446525	0.03839488
301.117	21.6511	1.65505	-0.00436089	0.0403736
301.5127	21.596	1.65586	-0.00443822	0.0412461
301.9082	21.5376	1.65561	-0.00451717	0.0414938
302.304	21.6051	1.65774	-0.00445332	0.0423831
302.699	21.578	1.65793	-0.0044391	0.0430595
303.095	21.7293	1.65811	-0.00447616	0.0446589
303.49	21.6384	1.65879	-0.00442022	0.0459469
303.886	21.605	1.66064	-0.00448215	0.0462889
304.281	21.61	1.66142	-0.00449694	0.0466567
304.677	21.8391	1.66399	-0.004431407	0.04898813
305.072	21.7409	1.66463	-0.00444855	0.050367
305.468	21.6519	1.66457	-0.00449787	0.0509463
305.863	21.5941	1.6642	-0.00443193	0.051498
306.259	21.5762	1.66493	-0.00445775	0.0520515
306.6543	21.6158	1.66639	-0.004486829	0.0522539
307.0498	21.8909	1.66892	-0.00442601	0.054151
307.445	21.7966	1.669329	-0.00449491	0.0555935
307.841	21.7557	1.67132	-0.00448516	0.05673039
308.236	21.7071	1.66753	-0.00445106	0.0580144
308.632	21.6808	1.67184	-0.00449401	0.05818503
309.027	21.7403	1.67347	-0.004546829	0.0588426
309.423	21.6829	1.67369	-0.00444869	0.0597526
309.818	21.6602	1.67439	-0.004457653	0.0599504
310.214	21.6821	1.67472	-0.00448037	0.0605519
310.609	21.7269	1.67554	-0.0044439	0.0614082
311.005	21.8677	1.67766	-0.00455367	0.0616571
311.4	21.7984	1.67755	-0.00448077	0.0625121
311.7959	21.82962	1.678624	-0.00446558	0.0638094
312.191	21.8712	1.68075	-0.00448959	0.0648423
312.587	21.8189	1.68107	-0.00451481	0.06569504
312.982	21.8559	1.6821	-0.00447596	0.0668662
313.378	21.8503	1.68313	-0.00454215	0.0675621
313.773	21.8093	1.68369	-0.004500668	0.0685614
314.169	21.7685	1.68322	-0.00446238	0.0692181
314.564	21.8564	1.68463	-0.00452395	0.06963627
314.96	21.9001	1.68574	-0.00456996	0.0703066
315.355	21.895	1.68728	-0.004450222	0.07191629
315.751	21.89	1.68719	-0.004509829	0.0725476
316.146	21.8932	1.68855	-0.0045698	0.0733943
316.542	21.9042	1.68924	-0.0044545	0.0744918
316.9375	22.0013	1.69143	-0.00450749	0.0753065
317.333	21.9429	1.69157	-0.00448304	0.0772188
317.729	21.8752	1.69231	-0.00448166	0.0782822
318.124	21.8266	1.69266	-0.00449188	0.0784222
318.52	21.916	1.69353	-0.00451219	0.0792453
318.915	21.9494	1.694725	-0.00438739	0.0804023
319.311	21.9868	1.6959	-0.00442589	0.081378
319.706	21.981	1.69659	-0.00448594	0.0824125
320.102	21.9646	1.69757	-0.00447152	0.0833918
320.497	21.976	1.69789	-0.00450591	0.0840998
320.893	22.0116	1.69929	-0.00444241	0.08572863
321.288	21.9935	1.70127	-0.00440211	0.0866309
321.684	21.9458	1.70132	-0.004465573	0.08727169
322.0791	21.8887	1.70087	-0.00441743	0.0881211
322.475	21.9398	1.70197	-0.00441711	0.08888714
322.87	21.9478	1.70311	-0.004488667	0.0893371
323.266	22.0114	1.7043	-0.00441704	0.0909631
323.661	22.0357	1.70599	-0.00444934	0.0918166
324.057	22.0453	1.70639	-0.00448907	0.0927762
324.452	22.0582	1.707278	-0.0043493	0.0946585
324.848	22.0697	1.70833	-0.0043794	0.0959807
325.243	22.0681	1.70998	-0.00443865	0.0972372
325.639	22.0312	1.7106	-0.00437247	0.0986378
326.034	21.9628	1.71024	-0.00435226	0.0994611
326.43	22.2677	1.71548	-0.00438689	0.1007902
326.8252	22.3148	1.72213	-0.00424332	0.110658
327.2207	22.5903	1.7315	-0.00410488	0.122228
327.616	22.1737	1.73717	-0.0041305	0.133959
328.012	22.4015	1.74271	-0.00399505	0.138989
328.407	22.5131	1.75073	-0.00406161	0.144423
328.803	22.5947	1.75465	-0.00410206	0.151685
329.198	22.5377	1.76602	-0.00407203	0.161702
329.594	22.5883	1.77327	-0.00396524	0.168218
329.989	22.6422	1.780594	-0.0041003	0.175366
330.385	22.6773	1.78705	-0.00399616	0.182507
330.78	22.5842	1.79463	-0.00411448	0.194634
331.176	22.7568	1.80345	-0.00409809	0.199673
331.571	22.7798	1.80887	-0.00400032	0.206939
331.9668	22.7217	1.81534	-0.00405111	0.214626
332.3623	22.7247	1.82254	-0.00411796	0.223045
332.758	22.8018	1.8308	-0.00409448	0.230558
333.153	22.8235	1.83897	-0.00404916	0.239082
333.549	22.6903	1.84466	-0.00411314	0.2482997
333.944	22.7815	1.85074	-0.00405897	0.253364
334.34	22.8869	1.85784	-0.004102055	0.260285
334.735	22.803	1.86085	-0.004079	0.26947
335.131	22.9163	1.87311	-0.00403615	0.277599
335.526	22.816	1.87933	-0.00401169	0.288846
335.922	22.8256	1.88659	-0.0040979	0.293928
336.317	22.9559	1.89048	-0.00407513	0.301216
336.713	23.01	1.90217	-0.00398739	0.310174
337.1084	22.8165	1.91092	-0.00406197	0.32066
337.504	22.8502	1.91736	-0.00414168	0.326777
337.899	22.8142	1.92315	-0.00404622	0.3346121
338.295	22.8938	1.92903	-0.00404298	0.340302
338.69	22.9126	1.93643	-0.00411957	0.347652
339.086	23.0166	1.943	-0.00407316	0.356641
339.481	22.8092	1.95084	-0.00411412	0.366425
339.877	22.7863	1.95778	-0.00415294	0.37731
340.272	22.7569	1.96502	-0.00405297	0.383224
340.668	22.9041	1.97346	-0.00405696	0.389883
341.063	22.8901	1.98008	-0.004157	0.398543
341.459	22.732	1.98608	-0.00412086	0.407771
341.854	22.8562	1.99207	-0.00400149	0.4133653
342.25	22.8645	2.000844	-0.00408543	0.420076
342.646	22.8565	2.00805	-0.00411309	0.428086
343.041	22.826	2.01564	-0.00400336	0.438114
343.437	22.7857	2.02481	-0.00408153	0.447802
343.832	22.8583	2.028676	-0.00409044	0.455092
344.228	22.9663	2.03733	-0.004038332	0.462718
344.623	22.851	2.04365	-0.00405371	0.473119
345.019	22.5739	2.05111	-0.00414374	0.482028
345.414	22.7494	2.05813	-0.00405871	0.487111
345.81	22.7558	2.06351	-0.00404002	0.494021
346.205	22.7365	2.0716	-0.00412414	0.501609
346.601	22.5763	2.0773	-0.00406162	0.512182
346.996	22.53771	2.08578	-0.00399808	0.521278
347.3916	22.5072	2.09237	-0.00410978	0.5306834
347.787	22.6709	2.10056	-0.00409407	0.535635
348.183	22.6505	2.10198	-0.00410487	0.544621
348.578	22.5144	2.11423	-0.00412366	0.553525
348.974	22.4485	2.12154	-0.00410212	0.562902
349.369	22.61882	2.1287	-0.00407805	0.569823
349.765	22.5063	2.13594	-0.00416396	0.579474
350.16	22.62009	2.1402	-0.00411903	0.586277
350.556	22.3896	2.14769	-0.00410099	0.594458
350.951	22.5072	2.15667	-0.00411903	0.600649
351.347	22.4608	2.16467	-0.00412678	0.609765
351.742	22.4997	2.17226	-0.004081	0.617809
352.1377	22.4238	2.1788	-0.004136689	0.625944
352.5332	22.4621	2.18744	-0.00413656	0.635298
352.929	22.38834	2.195246	-0.00412556	0.6462003
353.324	22.431	2.20036	-0.00413397	0.652969
353.72	22.3273	2.20789	-0.00414985	0.66158
354.115	22.4614	2.21352	-0.00407239	0.669007
354.511	22.30023	2.2199	-0.00409261	0.678825
354.906	22.2926	2.22528	-0.00413128	0.684472
355.302	22.1601	2.2383	-0.004101844	0.695955
355.697	22.2249	2.24177	-0.00416131	0.702813
356.093	22.2377	2.24892	-0.00403831	0.710872
356.488	22.1169	2.25735	-0.00404216	0.720286
356.884	22.1466	2.263777	-0.00420041	0.728119
357.2793	22.14897	2.27463	-0.00411274	0.7358039
357.6748	22.24782	2.27804	-0.00404144	0.744039
358.07	21.8737	2.28355	-0.00412131	0.752997
358.466	22.0497	2.29136	-0.00414874	0.758652
358.861	21.9198	2.30031	-0.00409335	0.769231
359.257	22.0189	2.3075	-0.00420217	0.773818
359.652	21.919	2.31257	-0.00405601	0.784515
360.048	21.8969	2.32257	-0.00408817	0.792489
360.443	21.84881	2.32237	-0.00415759	0.798531
360.839	21.8309	2.33312	-0.00409004	0.811813
361.234	21.61566	2.34427	-0.00404645	0.82396
361.63	21.8743	2.34985	-0.00410227	0.828306
362.025	21.6813	2.35524	-0.00407835	0.839092
362.4209	21.65601	2.36246	-0.00409071	0.845584
362.816	21.6798	2.37074	-0.00410444	0.853639
363.212	21.5292	2.37859	-0.00403896	0.862952
363.607	21.6105	2.385999	-0.00407901	0.8705442
364.003	21.626	2.39269	-0.00413061	0.877511
364.398	21.5634	2.39937	-0.00410703	0.887886
364.794	21.5981	2.40602	-0.0041172	0.896042
365.189	21.5631	2.41327	-0.00408659	0.904505
365.585	21.344	2.42128	-0.00407584	0.912732
365.98	21.2833	2.42849	-0.00415663	0.920278
366.376	21.3037	2.43606	-0.00414874	0.928793
366.771	21.1422	2.44145	-0.00407058	0.938356
367.167	21.3609	2.44987	-0.00414652	0.943705
367.5625	21.334	2.45677	-0.00414871	0.952605
367.958	21.2936	2.4637	-0.00409013	0.961382
368.354	21.232	2.46999	-0.00410571	0.968789
368.749	21.2454	2.47778	-0.004123705	0.976539
369.145	21.1649	2.48542	-0.00407835	0.986343
369.54	21.1245	2.49267	-0.00412822	0.994093
369.936	20.93763	2.49714	-0.00411992	1.00235
370.331	21.1278	2.50401	-0.00403393	1.01068
370.727	21.0733	2.508707	-0.00408486	1.02019
371.122	21.0145	2.51669	-0.00409931	1.03081
371.518	20.6745	2.52691	-0.00409793	1.039762
371.913	20.8894	2.53485	-0.00412677	1.0456
372.309	20.7802	2.54116	-0.00409364	1.05655
372.7041	20.8023	2.54864	-0.0040566	1.064
373.1	20.8332	2.55651	-0.00411705	1.07129
373.495	20.783	2.56342	-0.00408132	1.07895
373.891	20.621	2.56888	-0.00401494	1.08821
374.286	20.8559	2.57396	-0.00408578	1.0955
374.682	20.6649	2.58295	-0.0041194	1.10583
375.077	20.5815	2.59109	-0.00408076	1.11417
375.473	20.5276	2.59895	-0.00411562	1.12151
375.868	20.4386	2.61082	-0.00406032	1.13129
376.264	20.2361	2.61345	-0.00407856	1.13632
376.659	20.1786	2.62141	-0.00415996	1.14836
377.055	19.9631	2.62636	-0.0040645	1.15211
377.4502	19.886	2.63684	-0.00402219	1.16526
377.8457	19.7532	2.64112	-0.004096543	1.16655
378.241	20.426	2.65149	-0.00413639	1.16838
378.637	20.1731	2.650131	-0.00412094	1.17675
379.032	19.9512	2.66458	-0.00415821	1.1916
379.428	20.0616	2.664629	-0.00408149	1.19809
379.823	19.93	2.67682	-0.00404573	1.21905
380.219	20.1789	2.682148	-0.00413239	1.22442
380.614	19.8808	2.69143	-0.004124756	1.23507
381.01	19.9925	2.69837	-0.00403961	1.24156
381.405	19.7989	2.70502	-0.00407038	1.25202
381.801	19.7095	2.70996	-0.00416767	1.25588
382.196	19.4215	2.71793	-0.00406497	1.26008
382.5918	19.98558	2.72821	-0.00413142	1.26261
382.9873	19.0196	2.73396	-0.00407631	1.27983
383.383	19.7286	2.74488	-0.00406115	1.28588
383.778	19.6035	2.7482	-0.0041508	1.30131
384.174	19.5816	2.75169	-0.00413294	1.30833
384.569	19.61326	2.75798	-0.004048483	1.31361
384.965	19.5479	2.77504	-0.00409056	1.31981
385.36	19.491	2.77944	-0.00414934	1.33244
385.756	19.2697	2.78455	-0.00407876	1.33727
386.151	19.3195	2.79008	-0.00411974	1.3394
386.547	19.4387	2.79764	-0.00413008	1.34445
386.942	19.0539	2.80785	-0.00404082	1.35914
387.338	19.0396	2.81227	-0.00411185	1.36826
387.7334	19.2182	2.82097	-0.0041209	1.3708
388.129	19.0465	2.8305	-0.0040673	1.38466
388.524	19.0574	2.82963	-0.00409245	1.391
388.92	18.9061	2.83981	-0.00415197	1.40775
389.315	18.8356	2.84495	-0.00408037	1.41661
389.711	18.9921	2.85934	-0.00401008	1.4197
390.106	18.9524	2.86095	-0.00413715	1.42461
390.502	18.9355	2.8696	-0.00407732	1.43099
390.897	18.8139	2.87692	-0.004099	1.43994
391.293	18.4837	2.881211	-0.00410904	1.459545
391.688	18.8968	2.89229	-0.00403078	1.46328
392.084	18.65217	2.89667	-0.00405081	1.48196
392.479	18.6614	2.9045	-0.004168747	1.48768
392.875	18.5156	2.9183	-0.00408839	1.49831
393.271	18.44051	2.91934	-0.004015177	1.50148
393.666	18.5073	2.92174	-0.00406579	1.5043
394.062	18.342	2.92904	-0.00408615	1.5148
394.457	18.3394	2.937664	-0.0041164	1.51693
394.853	18.2451	2.944905	-0.00410144	1.52876
395.248	18.2442	2.95408	-0.00403695	1.53946
395.644	18.276	2.96368	-0.00409476	1.54695
396.039	18.4527	2.97352	-0.00415188	1.55257
396.435	18.125	2.97673	-0.00407894	1.56688
396.83	18.0231	2.98377	-0.00404785	1.577158
397.226	18.1201	2.98597	-0.00411808	1.58154
397.621	18.1015	3.00124	-0.00410255	1.593996
398.0166	17.83283	3.00532	-0.0040456	1.60478
398.412	17.9531	3.00758	-0.00414766	1.610939
398.808	17.7305	3.015981	-0.00411106	1.6203
399.203	17.6986	3.02185	-0.00407025	1.63025
399.599	17.5547	3.03137	-0.00418325	1.64326
399.994	17.6668	3.04103	-0.00414358	1.64879
400.39	17.6776	3.04571	-0.00403325	1.66045
400.785	17.7158	3.0582	-0.0040795	1.66535
401.181	17.5796	3.06371	-0.0041417	1.67323
401.576	17.3849	3.0714	-0.004105763	1.68226
401.972	17.2436	3.07643	-0.00409247	1.68994
402.367	17.4549	3.08193	-0.00407316	1.69468
402.7627	17.3527	3.0892	-0.00401016	1.71419
403.1582	17.2007	3.09685	-0.00414647	1.72136
403.554	17.093	3.10596	-0.00406132	1.732989
403.949	17.1258	3.11124	-0.00404098	1.73786
404.345	16.9695	3.11654	-0.00407009	1.7459
404.74	17.0081	3.12494	-0.00419381	1.75028
405.136	16.5847	3.13741	-0.00406454	1.76582
405.531	16.7227	3.14409	-0.00408554	1.76749
405.927	16.7255	3.14483	-0.00408869	1.76878
406.322	16.59445	3.1554	-0.00406875	1.7892
406.718	16.5856	3.16079	-0.00413102	1.79189
407.113	16.8339	3.1685	-0.00413419	1.79401
407.509	16.5255	3.17794	-0.00407481	1.80807
407.9043	16.4993	3.1861	-0.00414073	1.81668
408.2998	16.368	3.18836	-0.00413976	1.8312
408.695	16.4638	3.19653	-0.00409793	1.84579
409.091	16.3527	3.20349	-0.00415385	1.85558
409.486	16.4979	3.21024	-0.00409996	1.86087
409.882	16.1221	3.21783	-0.00407213	1.87165
410.277	16.035	3.22475	-0.00416156	1.8783
410.673	16.2298	3.24083	-0.00413335	1.88043
411.068	16.0925	3.2394	-0.00405144	1.88322
411.464	15.8552	3.24901	-0.00410512	1.9003
411.859	16.0726	3.25689	-0.00411472	1.90303
412.255	16.16604	3.26342	-0.00406613	1.90835
412.65	15.7151	3.26819	-0.00416669	1.92482
413.0459	15.7532	3.27406	-0.00404025	1.94281
413.441	15.8226	3.28149	-0.0040511	1.94942
413.837	15.7278	3.28418	-0.00413957	1.9554
414.232	15.4957	3.29091	-0.00409709	1.95928
414.628	15.5854	3.30021	-0.00403553	1.96712
415.023	15.4994	3.312603	-0.00409001	1.98057
415.419	15.5652	3.31553	-0.00405935	1.98894
415.814	15.3194	3.32415	-0.00406385	1.99807
416.21	15.2464	3.33496	-0.00414919	2.0041
416.605	15.1123	3.341727	-0.00406347	2.01521
417.001	15.33136	3.34592	-0.00403848	2.02066
417.396	14.86866	3.35375	-0.00417487	2.03341
417.792	15.0202	3.36192	-0.004130763	2.03735
418.1875	14.7927	3.36748	-0.00405393	2.04352
418.583	15.1212	3.37693	-0.00410535	2.0443
418.979	14.9385	3.3777	-0.00407776	2.06928
419.374	14.733	3.39013	-0.0040744	2.080863
419.77	11.1064	3.39689	-0.00413506	2.11124
420.165	11.3095	3.4032	-0.00406796	2.1129
420.561	11.5563	3.40916	-0.00408012	2.11426
420.956	11.9641	3.42129	-0.00414786	2.12137
421.352	11.791	3.42189	-0.00410374	2.13104
421.747	11.7828	3.42995	-0.00407765	2.13467
422.143	11.7111	3.43993	-0.00414451	2.14565
422.538	11.7605	3.43638	-0.004041669	2.14715
422.934	11.6967	3.44778	-0.00411315	2.157515
423.3291	11.6986	3.453974	-0.00413118	2.1699
423.725	11.6566	3.46172	-0.00407588	2.17415
424.12	11.5673	3.47191	-0.00411951	2.1863
424.516	11.6765	3.47851	-0.00412915	2.19187
424.911	11.45295	3.49305	-0.00411856	2.20245
425.307	11.537	3.50303	-0.00415784	2.21114
425.702	11.5827	3.5094	-0.00411089	2.22249
426.098	11.4339	3.51206	-0.00406791	2.22824
426.493	11.3141	3.51918	-0.00410363	2.23878
426.889	11.2792	3.52755	-0.00412327	2.24669
427.284	11.2158	3.533855	-0.00402477	2.25416
427.68	11.1251	3.54085	-0.00412384	2.25906
428.0752	10.7381	3.54663	-0.00416886	2.27816
428.4707	11.0364	3.54163	-0.00409337	2.27912
428.866	10.3383	3.55554	-0.00411208	2.29988
429.262	9.51107	3.56493	-0.00406869	2.31981
429.657	9.54871	3.57361	-0.004064383	2.32282
430.053	9.19434	3.58167	-0.00416687	2.32914
430.448	0.0161354	3.58777	-0.00401646	3.5015
430.785	0.0196216	3.58532	-0.00396318	4.0594