File: shares/flx_lsms_hydrogen/EXPERIMENTAL_DATA/LABO_SOETE/WP1_TENSILE/H2_HC1/MTS/LYARR4/specimen.dat
MTS793|MPT|ENU|1|2|.|/|:|1|0|0|A

Data Acquisition						Time:	15.0205	s	1/26/2022 1:38:39 PM
Time	ESH B Force	ESH B Displacement	Analog In 2	Analog In 1
s	kN	mm	V	V
0.0341797	0.269008	1.99871	-0.0658456	-0.00290686
0.913086	0.295354	2.00238	-0.0657854	-0.00259074
1.79199	0.285059	2.00066	-0.0657771	-0.00254283
2.6709	0.287429	2.001379	-0.0658192	-0.0026895
3.5498	0.3168	2.00438	-0.0658391	-0.00279465
4.42871	0.304051	2.00236	-0.0658844	-0.00281506
5.30762	0.30869	2.00386	-0.0657985	-0.00264234
6.18652	0.333104	2.00771	-0.0657747	-0.00253857
7.06543	0.322675	2.00505	-0.0658295	-0.00268122
7.94434	0.330474	2.00556	-0.0658883	-0.00298316
8.82324	0.352771	2.01037	-0.0655606	-0.00299188
9.70215	0.339868	2.007725	-0.0655693	-0.00291408
10.5811	0.3514064	2.0096	-0.0655182	-0.00246904
11.46	0.367667	2.012171	-0.0655234	-0.0027054
12.3389	0.359729	2.01112	-0.0655836	-0.00286643
13.2178	0.375229	2.01237	-0.0656104	-0.003049697
14.09668	0.380626	2.015125	-0.0655859	-0.002979836
14.9756	0.38027	2.01416	-0.06555973	-0.002644327
15.8545	0.39515	2.01572	-0.065451	-0.00258949
16.7334	0.392985	2.01745	-0.0651743	-0.002621799
17.6123	0.3983492	2.01681	-0.0655475	-0.00282971
18.4912	0.413036	2.01867	-0.0655603	-0.00289978
19.3701	0.404564	2.02	-0.0655571	-0.00279202
20.249	0.410531	2.01903	-0.0654878	-0.00258604
21.12793	0.431857	2.02239	-0.0655397	-0.00259129
22.0068	0.418187	2.02188	-0.0655794	-0.00284777
22.8857	0.426252	2.02233	-0.0652996	-0.003033868
23.7646	0.448635	2.0256	-0.0656055	-0.00294557
24.6436	0.425824	2.02464	-0.0652437	-0.002842823
25.5225	0.433607	2.02398	-0.0655442	-0.00274279
26.4014	0.465875	2.02813	-0.0652841	-0.002779834
27.2803	0.441164	2.02659	-0.065293	-0.0029738
28.15918	0.450369	2.02641	-0.0652648	-0.00303538
29.0381	0.482813	2.03111	-0.0652285	-0.00271481
29.917	0.460843	2.02921	-0.0651976	-0.0025518
30.7959	0.47196	2.02959	-0.06551373	-0.00263485
31.6748	0.50616	2.03366	-0.0652434	-0.0028503
32.5537	0.484693	2.03223	-0.0655825	-0.00284395
33.4326	0.48928	2.032397	-0.0652464	-0.00269298
34.3115	0.530865	2.036	-0.0652306	-0.00254565
35.19043	0.508728	2.03457	-0.065229	-0.00272622
36.0693	0.511571	2.03444	-0.0653154	-0.00300363
36.9482	0.547983	2.03879	-0.0653041	-0.00300306
37.8271	0.526967	2.03669	-0.0652279	-0.00280903
38.7061	0.525946	2.03721	-0.065255	-0.00269918
39.585	0.5626322	2.040791	-0.0652441	-0.00279722
40.4639	0.54474	2.03939	-0.0652882	-0.003015613
41.3428	0.546513	2.04071	-0.0653098	-0.00303054
42.22168	0.579827	2.04319	-0.0652276	-0.00274728
43.1006	0.564373	2.04148	-0.065181	-0.00252024
43.9795	0.568427	2.04298	-0.0652319	-0.0025738
44.8584	0.600645	2.04651	-0.0652646	-0.0027861
45.7373	0.597577	2.04492	-0.0652404	-0.00288494
46.6162	0.59916	2.046303	-0.064937	-0.00280695
47.4951	0.626292	2.04842	-0.0649131	-0.00264909
48.374	0.630647	2.04749	-0.0649079	-0.00251909
49.25293	0.642212	2.04912	-0.0649127	-0.00285418
50.1318	0.662898	2.0512	-0.064961	-0.00307496
51.0107	0.661869	2.04949	-0.0649827	-0.00299177
51.8896	0.689984	2.052223	-0.064946	-0.00283876
52.7686	0.695879	2.05322	-0.0649289	-0.002729041
53.6475	0.710142	2.05348	-0.0649056	-0.00274147
54.5264	0.734035	2.05499	-0.0649752	-0.00291089
55.4053	0.729307	2.05554	-0.0649361	-0.00282174
56.28418	0.740462	2.05559	-0.0648959	-0.002575838
57.1631	0.777911	2.05847	-0.0648477	-0.00258788
58.042	0.760202	2.05843	-0.0648617	-0.00259561
58.9209	0.775466	2.05843	-0.0646021	-0.00247108
59.7998	0.826111	2.06179	-0.064636	-0.00288552
60.6787	0.791057	2.06049	-0.0649441	-0.00289524
61.5576	0.805715	2.06109	-0.0645711	-0.0026828
62.4365	0.86228	2.06412	-0.0645934	-0.00231306
63.31543	0.817799	2.06292	-0.06461823	-0.00264294
64.1943	0.830708	2.06289	-0.0646765	-0.00297454
65.0732	0.910381	2.06697	-0.0646604	-0.00301803
65.9521	0.858382	2.06508	-0.0646741	-0.00297888
66.8311	0.870557	2.06577	-0.0646097	-0.002791544
67.71	0.951827	2.06976	-0.0643024	-0.002446299
68.5889	0.912739	2.06807	-0.0646362	-0.00277668
69.4678	0.922779	2.06841	-0.0646927	-0.002942893
70.34668	1.0001	2.072886	-0.0643573	-0.00304985
71.2256	0.95995	2.07053	-0.0643587	-0.00290211
72.1045	0.968692	2.07111	-0.06430167	-0.00261903
72.9834	1.0406	2.07503	-0.0640294	-0.00258369
73.8623	0.998438	2.07318	-0.0643067	-0.00264536
74.7412	1.006572	2.07273	-0.06408713	-0.00280067
75.6201	1.10059	2.07803	-0.0640947	-0.00294529
76.499	1.04431	2.0761	-0.0641218	-0.00280082
77.37793	1.04947	2.0752	-0.0640516	-0.00265617
78.2568	1.14693	2.08036	-0.0640511	-0.00253204
79.1357	1.10401	2.078244	-0.06401898	-0.00268012
80.0146	1.109966	2.07889	-0.0641371	-0.00296333
80.8936	1.17787	2.08276	-0.0637772	-0.00300295
81.7725	1.15078	2.08048	-0.0637754	-0.00275365
82.6514	1.15073	2.08145	-0.0637702	-0.0028466
83.5303	1.20968	2.08428	-0.0637625	-0.00273049
84.40918	1.19592	2.08407	-0.0637279	-0.00249305
85.2881	1.19463	2.08379	-0.0637577	-0.00259352
86.167	1.25432	2.08807	-0.0638171	-0.00273467
87.0459	1.24331	2.08615	-0.0634149	-0.0027922
87.9248	1.25081	2.0876	-0.0637749	-0.00266585
88.8037	1.29879	2.08994	-0.0633811	-0.00239616
89.6826	1.29301	2.08881	-0.0633645	-0.00237728
90.5615	1.30118	2.08874	-0.0636862	-0.0023588
91.44043	1.363242	2.09241	-0.0633575	-0.00269528
92.3193	1.34965	2.09126	-0.0634071	-0.002805098
93.1982	1.37667	2.09266	-0.0634406	-0.00286157
94.0771	1.42774	2.09489	-0.0631445	-0.002554249
94.9561	1.42494	2.0938	-0.0631191	-0.00266153
95.835	1.44766	2.09508	-0.0633724	-0.002561094
96.7139	1.48592	2.09753	-0.0630511	-0.00258178
97.5928	1.48449	2.09652	-0.0631215	-0.00279742
98.47168	1.5068	2.09781	-0.0631909	-0.00272128
99.3506	1.53791	2.10018	-0.0631745	-0.00299212
100.229	1.54127	2.09943	-0.0631162	-0.002645771
101.1084	1.56378	2.10055	-0.0631004	-0.00276742
101.9873	1.58795	2.10302	-0.0627321	-0.00249779
102.866	1.59071	2.10169	-0.0627718	-0.00278257
103.745	1.62092	2.10375	-0.0627411	-0.00275455
104.624	1.6397	2.10501	-0.0627986	-0.00278085
105.503	1.649596	2.10498	-0.0627677	-0.00274302
106.382	1.68451	2.10689	-0.0623915	-0.00259237
107.261	1.69759	2.107857	-0.062725	-0.00257816
108.14	1.708612	2.10739	-0.0624094	-0.00250731
109.019	1.7435	2.10957	-0.0624141	-0.00290482
109.897	1.76233	2.11018	-0.0624779	-0.00263195
110.776	1.77857	2.10999	-0.0624172	-0.00240358
111.655	1.81335	2.11182	-0.06240768	-0.00252042
112.534	1.84048	2.11353	-0.06210459	-0.00264633
113.413	1.85687	2.11299	-0.0621475	-0.00270686
114.292	1.89684	2.11426	-0.0621895	-0.0027369
115.1709	1.897141	2.11541	-0.0622063	-0.00273228
116.0498	1.922	2.11496	-0.0621064	-0.002562969
116.929	1.96468	2.11789	-0.06210833	-0.00274611
117.808	1.96038	2.11785	-0.06181819	-0.00273555
118.687	1.98507	2.11769	-0.0621818	-0.00277628
119.565	2.03968	2.12061	-0.0618937	-0.00291798
120.444	2.028	2.12082	-0.061828	-0.00299736
121.323	2.04953	2.12016	-0.0618547	-0.00301493
122.202	2.10713	2.1237	-0.0618099	-0.00286794
123.081	2.08245	2.12305	-0.0615019	-0.0026723
123.96	2.095948	2.12271	-0.0615028	-0.00254584
124.839	2.18441	2.12628	-0.0615134	-0.00257316
125.718	2.14736	2.12588	-0.0614388	-0.00256948
126.597	2.16043	2.12611	-0.0614797	-0.00264981
127.476	2.26973	2.13005	-0.0612441	-0.00274949
128.354	2.21807	2.12803	-0.0612588	-0.00281336
129.2334	2.23875	2.128	-0.0612945	-0.00289575
130.1123	2.3431	2.13208	-0.0612496	-0.00287327
130.991	2.2946	2.13184	-0.0612013	-0.00277291
131.87	2.31914	2.13132	-0.0612234	-0.00268035
132.749	2.42321	2.13453	-0.0608953	-0.00254389
133.628	2.37729	2.13313	-0.06087504	-0.002508217
134.507	2.39778	2.13382	-0.0609044	-0.00269454
135.386	2.50003	2.13677	-0.0609705	-0.002828184
136.265	2.45563	2.13581	-0.06104134	-0.00301167
137.144	2.474551	2.13564	-0.0610338	-0.00302311
138.022	2.574049	2.139401	-0.0607267	-0.002949392
138.901	2.52578	2.13884	-0.0607418	-0.00285313
139.78	2.54726	2.13838	-0.0606575	-0.00273235
140.659	2.64354	2.14195	-0.0606508	-0.00269551
141.538	2.59689	2.14153	-0.06035731	-0.00280175
142.417	2.61985	2.141793	-0.0604041	-0.00296206
143.2959	2.7309	2.14421	-0.060359	-0.0030583
144.1748	2.67818	2.14376	-0.0603811	-0.00290623
145.054	2.70744	2.1436	-0.0600172	-0.002640628
145.933	2.7926	2.14699	-0.0602986	-0.00261924
146.812	2.75638	2.14694	-0.0600159	-0.00260541
147.69	2.78112	2.14756	-0.06005865	-0.00253513
148.569	2.85568	2.1509	-0.0600601	-0.00263502
149.448	2.817816	2.14974	-0.0600302	-0.002580625
150.327	2.85149	2.14995	-0.0600393	-0.00240027
151.206	2.93653	2.153785	-0.059989	-0.00230775
152.085	2.8988	2.15182	-0.0600415	-0.00242514
152.964	2.92707	2.15254	-0.0597956	-0.00272886
153.843	2.995332	2.15552	-0.0598128	-0.00274642
154.722	2.96457	2.15347	-0.0597756	-0.002723817
155.601	3.00704	2.15513	-0.0594861	-0.00279606
156.479	3.08148	2.15812	-0.0594575	-0.00275309
157.3584	3.044466	2.15734	-0.0594841	-0.00251538
158.2373	3.06061	2.15765	-0.0594748	-0.00296299
159.116	3.17053	2.16006	-0.0592396	-0.00307858
159.995	3.14233	2.15975	-0.05913686	-0.00287859
160.874	3.15158	2.1598	-0.0591578	-0.00258993
161.753	3.26847	2.16326	-0.0591063	-0.00261881
162.632	3.22496	2.16251	-0.05911522	-0.0026566
163.511	3.23664	2.16307	-0.058894	-0.0025942
164.39	3.34244	2.16561	-0.0588923	-0.00290295
165.269	3.3013	2.166131	-0.0588746	-0.00282813
166.147	3.31689	2.16541	-0.0588537	-0.00243816
167.026	3.41289	2.1685	-0.0588444	-0.002524511
167.905	3.37635	2.1677	-0.058535	-0.00261513
168.784	3.40196	2.16792	-0.0588466	-0.00260108
169.663	3.472949	2.17029	-0.0585854	-0.00274226
170.542	3.46137	2.17087	-0.0585916	-0.00301263
171.4209	3.48599	2.17105	-0.0585556	-0.00299005
172.2998	3.55005	2.17283	-0.058581	-0.00285322
173.179	3.53698	2.173409	-0.05825381	-0.0025082
174.058	3.56185	2.173	-0.0582348	-0.00248165
174.937	3.62761	2.17564	-0.0583174	-0.0025721
175.815	3.6234	2.1764	-0.05828663	-0.0026421
176.694	3.64031	2.17548	-0.0579359	-0.00279317
177.573	3.71646	2.17803	-0.0578598	-0.00283867
178.452	3.73036	2.17922	-0.05786011	-0.00261806
179.331	3.7418	2.17854	-0.0578061	-0.0023887
180.21	3.80294	2.18027	-0.0577809	-0.00237143
181.089	3.80478	2.18114	-0.0575185	-0.00239532
181.968	3.8349	2.18144	-0.0574893	-0.00246518
182.847	3.87929	2.18415	-0.0575449	-0.00257197
183.726	3.89183	2.183636	-0.057565	-0.00271681
184.604	3.91313	2.183048	-0.0575361	-0.002593654
185.4834	3.95337	2.1863	-0.0575272	-0.00245561
186.3623	3.97692	2.18617	-0.0571921	-0.00233868
187.241	3.998594	2.18616	-0.0571834	-0.00235923
188.12	4.03298	2.18898	-0.0572328	-0.00253681
188.999	4.04803	2.18878	-0.0572746	-0.00272692
189.878	4.06715	2.189	-0.0570093	-0.00274948
190.757	4.09682	2.19123	-0.0572964	-0.00276791
191.636	4.13599	2.19167	-0.0569682	-0.00261076
192.515	4.14676	2.19207	-0.0569192	-0.002517337
193.394	4.192708	2.193711	-0.0569238	-0.00248987
194.272	4.24249	2.19467	-0.056655	-0.0025029
195.151	4.25768	2.1947	-0.0569411	-0.00268914
196.03	4.27701	2.19569	-0.0566967	-0.00307035
196.909	4.33366	2.19721	-0.0566976	-0.00301088
197.788	4.34861	2.19727	-0.0563632	-0.002768
198.667	4.37094	2.19838	-0.0563466	-0.002598823
199.5459	4.43274	2.19997	-0.0563331	-0.00260524
200.4248	4.44529	2.200253	-0.05633641	-0.00244289
201.304	4.46537	2.20096	-0.0564048	-0.00284853
202.183	4.52864	2.20239	-0.0560708	-0.00266775
203.062	4.53612	2.2018	-0.0560862	-0.00264761
203.94	4.55369	2.20357	-0.0560601	-0.00247741
204.819	4.62454	2.20506	-0.0557093	-0.00238764
205.698	4.63643	2.20438	-0.0557193	-0.00238783
206.577	4.6323	2.20576	-0.05577084	-0.00272732
207.456	4.71041	2.20817	-0.0558398	-0.00286665
208.335	4.71969	2.20751	-0.0557827	-0.00276457
209.214	4.72671	2.20886	-0.05570323	-0.00263176
210.093	4.8198	2.21069	-0.0554094	-0.00249605
210.972	4.82122	2.2098	-0.05546	-0.00251108
211.851	4.82333	2.21048	-0.05552651	-0.00268633
212.729	4.92134	2.21391	-0.0551906	-0.002804453
213.6084	4.93052	2.21343	-0.0552528	-0.002942631
214.4873	4.92391	2.21338	-0.0551419	-0.00237453
215.366	5.00995	2.21607	-0.0548298	-0.00234789
216.245	5.01744	2.21543	-0.0548291	-0.00244087
217.124	5.01224	2.2163	-0.0548946	-0.00261269
218.003	5.112844	2.2188	-0.054892	-0.00268378
218.882	5.11084	2.217845	-0.0549111	-0.00259341
219.761	5.10143	2.21834	-0.0548221	-0.00236633
220.64	5.20402	2.222	-0.0545069	-0.00230719
221.519	5.20671	2.220922	-0.0545585	-0.00251862
222.397	5.197979	2.221251	-0.0545884	-0.00277011
223.276	5.28973	2.22453	-0.0542718	-0.00279429
224.155	5.28064	2.22385	-0.0545847	-0.00265632
225.034	5.28146	2.22372	-0.054539	-0.00253503
225.913	5.43028	2.22719	-0.0539628	-0.00252928
226.792	5.40109	2.22627	-0.05427973	-0.002571872
227.6709	5.395896	2.22692	-0.0542788	-0.00275712
228.5498	5.53092	2.23029	-0.05401887	-0.00279277
229.429	5.494163	2.22873	-0.0539471	-0.00251686
230.308	5.49643	2.22924	-0.0538968	-0.00236852
231.187	5.63248	2.23284	-0.0536322	-0.00238105
232.065	5.60313	2.23187	-0.05394128	-0.00258518
232.944	5.61392	2.23197	-0.0537115	-0.00264911
233.823	5.73521	2.23541	-0.053382	-0.00257368
234.702	5.70091	2.23411	-0.0532959	-0.00240009
235.581	5.7221	2.23476	-0.05334527	-0.0023541
236.46	5.84484	2.23827	-0.05302839	-0.0026554
237.339	5.82707	2.23778	-0.0534517	-0.00275032
238.218	5.85422	2.23747	-0.05306831	-0.002752285
239.097	5.94267	2.24071	-0.0529888	-0.00252155
239.976	5.92573	2.2399	-0.0529721	-0.002484259
240.854	5.95104	2.24033	-0.0529712	-0.0026154
241.7334	6.03502	2.24277	-0.052723	-0.00278636
242.6123	6.02496	2.24258	-0.0527051	-0.00278966
243.491	6.05485	2.24251	-0.0526156	-0.00245578
244.37	6.14504	2.2451	-0.0522313	-0.00231031
245.249	6.14747	2.24545	-0.05226681	-0.00231717
246.128	6.17663	2.24516	-0.0523859	-0.0025605
247.007	6.24401	2.24794	-0.0523972	-0.00268801
247.886	6.24074	2.2482	-0.0520745	-0.00265179
248.765	6.27333	2.24766	-0.0520465	-0.00239215
249.644	6.32139	2.25043	-0.0519774	-0.0023168
250.522	6.34783	2.25041	-0.052027	-0.00251567
251.401	6.377666	2.25072	-0.0517769	-0.00277536
252.28	6.43258	2.25292	-0.0517749	-0.00279097
253.159	6.46488	2.2535	-0.0514071	-0.00266086
254.038	6.48979	2.2532	-0.05144044	-0.00253846
254.917	6.51179	2.25508	-0.0514335	-0.00249935
255.7959	6.55499	2.25641	-0.0514502	-0.00261255
256.6748	6.59098	2.25608	-0.0514055	-0.00272282
257.554	6.60387	2.25695	-0.0515085	-0.00287194
258.433	6.67037	2.25908	-0.0511546	-0.00260624
259.312	6.69942	2.25821	-0.0511281	-0.00239647
260.19	6.6946	2.25932	-0.0511014	-0.00237744
261.069	6.79643	2.26218	-0.0507877	-0.00246374
261.948	6.82474	2.2619	-0.050843	-0.00263179
262.827	6.82678	2.26235	-0.0508559	-0.00269012
263.706	6.91097	2.26462	-0.05053876	-0.00252886
264.585	6.93601	2.264286	-0.0508001	-0.00241365
265.464	6.92224	2.26468	-0.0508475	-0.00259329
266.343	7.04107	2.2673	-0.0505705	-0.00257382
267.222	7.05405	2.266726	-0.0503677	-0.00277834
268.101	7.05074	2.26725	-0.0506052	-0.00282068
268.979	7.15098	2.269943	-0.0503347	-0.00298779
269.8584	7.16163	2.26906	-0.0503222	-0.00257891
270.7373	7.15336	2.27006	-0.0499733	-0.00253138
271.616	7.26357	2.27274	-0.0499719	-0.00251256
272.495	7.27131	2.27166	-0.0496794	-0.00269949
273.374	7.27245	2.27241	-0.0497074	-0.00301519
274.253	7.38239	2.27542	-0.0497569	-0.00278216
275.132	7.3766	2.27448	-0.0497094	-0.00258458
276.011	7.39655	2.27496	-0.0496459	-0.00235698
276.89	7.51347	2.27795	-0.0493547	-0.002394178
277.769	7.50735	2.27716	-0.0493916	-0.00268983
278.647	7.51858	2.277843	-0.0493904	-0.00259328
279.526	7.61809	2.28082	-0.0491031	-0.00265851
280.405	7.62474	2.28046	-0.0491094	-0.002650168
281.284	7.64163	2.28003	-0.0491162	-0.00253338
282.163	7.72946	2.28335	-0.0487938	-0.00240783
283.042	7.72239	2.2827	-0.0487612	-0.002312711
283.9209	7.74172	2.28307	-0.0487877	-0.00242311
284.7998	7.84276	2.28566	-0.04857162	-0.00268697
285.679	7.84181	2.28579	-0.0485873	-0.0027988
286.558	7.87549	2.28585	-0.04858939	-0.00282181
287.437	7.93379	2.28771	-0.0485777	-0.002787705
288.315	7.93862	2.28742	-0.0481144	-0.00262345
289.194	7.96384	2.288831	-0.04855638	-0.0025218
290.073	8.022583	2.29099	-0.0480738	-0.00248859
290.952	8.03934	2.29114	-0.0480582	-0.00252427
291.831	8.07534	2.29122	-0.0481232	-0.0026983
292.71	8.18942	2.29386	-0.0478563	-0.002827439
293.589	8.19073	2.29397	-0.0478671	-0.00282242
294.468	8.22174	2.29395	-0.0478204	-0.00262776
295.347	8.45718	2.2955	-0.04752358	-0.00243088
296.226	8.39287	2.29781	-0.047228	-0.0023651
297.104	8.3828	2.29583	-0.0472543	-0.002441382
297.9834	8.45428	2.299185	-0.0472889	-0.00256217
298.8623	8.46932	2.29886	-0.04697625	-0.00263251
299.741	8.48632	2.29868	-0.0469806	-0.00264057
300.62	8.566803	2.30246	-0.046992	-0.00247113
301.499	8.54058	2.30124	-0.046916	-0.00237048
302.378	8.56922	2.301811	-0.0468814	-0.00239293
303.257	8.58988	2.30133	-0.0470029	-0.00264817
304.136	8.6894	2.30511	-0.046716	-0.00280767
305.015	8.71117	2.30458	-0.0466764	-0.002783542
305.894	8.71807	2.30511	-0.0466252	-0.00270947
306.772	8.8792	2.30884	-0.0460414	-0.0025642
307.651	8.8816	2.30675	-0.0463227	-0.00249553
308.53	8.85235	2.30785	-0.046309	-0.00253621
309.409	9.0462	2.310734	-0.0457195	-0.00299974
310.288	9.005353	2.31005	-0.0460666	-0.003081132
311.167	9.00107	2.30999	-0.0460415	-0.002747732
312.0459	9.1048	2.3138	-0.0457164	-0.00248988
312.9248	9.09392	2.31146	-0.0457224	-0.00236335
313.804	9.08536	2.31372	-0.0457314	-0.0023245
314.683	9.164073	2.31535	-0.0454033	-0.00241827
315.562	9.17283	2.31428	-0.0454275	-0.00257369
316.44	9.17827	2.31517	-0.0454463	-0.00264219
317.319	9.27877	2.317951	-0.0450968	-0.00258401
318.198	9.3068	2.31755	-0.0450655	-0.00235251
319.077	9.32433	2.3185	-0.0450513	-0.00231038
319.956	9.47125	2.32159	-0.0447568	-0.00238448
320.835	9.46155	2.31892	-0.0447896	-0.0027351
321.714	9.47848	2.32066	-0.0448322	-0.00298595
322.593	9.56048	2.32393	-0.0445469	-0.00271376
323.472	9.58248	2.32244	-0.0445333	-0.00254012
324.351	9.59318	2.32387	-0.0445222	-0.00249241
325.229	9.78494	2.3267	-0.04426777	-0.00249303
326.1084	9.74648	2.32658	-0.044296	-0.00272016
326.9873	9.74828	2.32609	-0.0442672	-0.00282871
327.866	10.0603	2.32962	-0.0436241	-0.00257774
328.745	9.92259	2.33064	-0.0438771	-0.00231168
329.624	9.90131	2.32945	-0.0438939	-0.00258458
330.503	10.0651	2.33277	-0.0436121	-0.00246717
331.382	10.01247	2.33232	-0.0436132	-0.002612486
332.261	9.99765	2.3325	-0.0436219	-0.0028153
333.14	10.0934	2.3342	-0.0431914	-0.00236305
334.019	10.0899	2.334085	-0.0435749	-0.00229771
334.897	10.1194	2.33444	-0.0432488	-0.00292347
335.776	10.1638	2.33609	-0.0433254	-0.00277597
336.655	10.2051	2.33722	-0.0429367	-0.00268416
337.534	10.2414	2.33725	-0.0429065	-0.00249752
338.413	10.3161	2.33924	-0.0428991	-0.00249208
339.292	10.3518	2.33897	-0.0426429	-0.00271334
340.1709	10.4035	2.34009	-0.0426717	-0.00286971
341.0498	10.4351	2.34134	-0.0426406	-0.002579852
341.929	10.4933	2.34251	-0.0422364	-0.00235386
342.808	10.5318	2.34187	-0.0422645	-0.00235278
343.687	10.5967	2.3439	-0.0422821	-0.00256526
344.565	10.6548	2.3454	-0.04200682	-0.00268933
345.444	10.6996	2.34556	-0.0420233	-0.002624362
346.323	10.7228	2.34652	-0.041999	-0.00244038
347.202	10.7719	2.34816	-0.0416901	-0.00231033
348.081	10.8145	2.34797	-0.0416541	-0.00253525
348.96	10.8292	2.34964	-0.0418204	-0.00281477
349.839	10.8898	2.35059	-0.0414607	-0.00278491
350.718	10.9298	2.35011	-0.0414425	-0.00260944
351.597	10.9427	2.35164	-0.0414274	-0.00246132
352.476	11.0139	2.35307	-0.0411752	-0.0025475
353.354	11.0531	2.35269	-0.0412037	-0.00279358
354.2334	11.0561	2.35413	-0.0411741	-0.00272785
355.1123	11.1292	2.35521	-0.0411528	-0.0024343
355.991	11.1669	2.35595	-0.04110517	-0.0023378
356.87	11.16188	2.35662	-0.0411534	-0.00258445
357.749	11.2705	2.35837	-0.0408888	-0.00265766
358.628	11.2943	2.35812	-0.0405273	-0.0025351
359.507	11.3112	2.3588	-0.0405028	-0.00233788
360.386	11.4162	2.36115	-0.0401759	-0.0024289
361.265	11.4375	2.36109	-0.0402631	-0.00273511
362.144	11.4556	2.3619	-0.040254	-0.00270802
363.022	11.5335	2.36337	-0.0398524	-0.00258292
363.901	11.5607	2.36264	-0.0399027	-0.00270874
364.78	11.5765	2.36359	-0.0396435	-0.00255245
365.659	11.6725	2.366399	-0.0396644	-0.00275224
366.538	11.6893	2.366195	-0.0396919	-0.00271085
367.417	11.7165	2.36676	-0.0396028	-0.002407667
368.2959	11.8026	2.3696	-0.0395436	-0.0024368
369.1748	11.8077	2.368319	-0.03928015	-0.00281875
370.054	11.8401	2.36909	-0.0393349	-0.0026206
370.933	12.238	2.37522	-0.03831508	-0.00256467
371.812	12.1012	2.37281	-0.0386813	-0.00235546
372.69	12.0651	2.37251	-0.0386646	-0.00258381
373.569	12.2314	2.37653	-0.0383735	-0.00273764
374.448	12.1827	2.37445	-0.0387225	-0.00275508
375.327	12.1566	2.37463	-0.0383561	-0.00265444
376.206	12.49	2.38113	-0.0383121	-0.00249066
377.085	12.339	2.37867	-0.0380347	-0.00255994
377.964	12.3941	2.37813	-0.0380552	-0.00274059
378.843	12.4412	2.37727	-0.0377545	-0.00278263
379.722	12.3948	2.380306	-0.0376736	-0.00242061
380.601	12.4299	2.38084	-0.0376737	-0.00234026
381.479	12.5237	2.38221	-0.0376766	-0.00247918
382.3584	12.5012	2.38177	-0.0377153	-0.00262424
383.2373	12.5412	2.38209	-0.0374126	-0.00259459
384.116	12.5739	2.38401	-0.03738346	-0.00236876
384.995	12.6145	2.38499	-0.0373783	-0.00231387
385.874	12.6798	2.38547	-0.0370921	-0.00287714
386.753	12.6928	2.386446	-0.0371193	-0.00301258
387.632	12.7536	2.38794	-0.0371463	-0.0030153
388.511	12.8172	2.38836	-0.0368068	-0.00276906
389.39	12.81274	2.3889	-0.0370832	-0.00246763
390.269	12.8892	2.39085	-0.0365533	-0.00284247
391.147	12.9355	2.39025	-0.0365482	-0.00277737
392.026	12.9431	2.391403	-0.036555	-0.00269401
392.905	13.0349	2.39295	-0.0361482	-0.00239744
393.784	13.0806	2.39272	-0.0361822	-0.00234247
394.663	13.0958	2.39343	-0.0362239	-0.002487896
395.542	13.1729	2.3965	-0.0359709	-0.00261329
396.4209	13.21482	2.395359	-0.0359243	-0.00281398
397.2998	13.2118	2.39613	-0.0358672	-0.00262283
398.179	13.2933	2.39831	-0.0355812	-0.002577198
399.058	13.3408	2.3983	-0.0356481	-0.00295533
399.937	13.354	2.39953	-0.0356235	-0.00271876
400.815	13.4484	2.4015	-0.0353713	-0.002566667
401.694	13.4751	2.40113	-0.0353427	-0.00248055
402.573	13.4967	2.40191	-0.0353265	-0.00252249
403.452	13.5815	2.4041	-0.035082	-0.00271266
404.331	13.6245	2.4042	-0.0350678	-0.00278601
405.21	13.6504	2.40437	-0.0350218	-0.002458168
406.089	13.732	2.40682	-0.0346838	-0.00233873
406.968	13.7579	2.40681	-0.03471465	-0.002372975
407.847	13.7983	2.40737	-0.0344203	-0.00248422
408.726	13.8691	2.40952	-0.0344721	-0.00261596
409.604	13.9024	2.40925	-0.0341561	-0.00257979
410.4834	13.969	2.409857	-0.0341279	-0.00266831
411.3623	14.0425	2.41223	-0.0341224	-0.00255996
412.241	14.0724	2.411767	-0.0338337	-0.00275322
413.12	14.1431	2.41298	-0.0338491	-0.00305185
413.999	14.1636	2.41515	-0.0338897	-0.0030252
414.878	14.1977	2.41492	-0.0334802	-0.00299413
415.757	14.2577	2.41558	-0.0334661	-0.00277588
416.636	14.28518	2.41796	-0.0331312	-0.00274643
417.515	14.317	2.41666	-0.0331264	-0.0028621
418.394	14.3955	2.41813	-0.0331886	-0.00292251
419.272	14.3975	2.419502	-0.0331936	-0.00309236
420.151	14.4328	2.42028	-0.0331518	-0.00297801
421.03	14.5123	2.42046	-0.0327777	-0.00266081
421.909	14.50107	2.42248	-0.0327438	-0.0026407
422.788	14.5519	2.42273	-0.0324694	-0.00260311
423.667	14.6528	2.42397	-0.03250958	-0.00283155
424.5459	14.6513	2.42507	-0.0322738	-0.00285608
425.4248	14.7265	2.42526	-0.0322714	-0.00283436
426.304	14.8327	2.42648	-0.0319883	-0.002682684
427.183	14.8194	2.42648	-0.03184789	-0.00252658
428.062	14.8875	2.42789	-0.0316459	-0.00275964
428.94	14.9696	2.42925	-0.0317181	-0.00301476
429.819	14.9625	2.42927	-0.03173	-0.00300737
430.698	15.0021	2.43068	-0.03168869	-0.00283398
431.577	15.0939	2.43133	-0.03131881	-0.00268035
432.456	15.0707	2.43214	-0.0313498	-0.00271043
433.335	15.1476	2.43309	-0.03138	-0.00297755
434.214	15.2239	2.43417	-0.0310931	-0.00301882
435.093	15.2318	2.43537	-0.0309988	-0.00264698
435.972	15.2912	2.43621	-0.0306764	-0.00259636
436.851	15.3598	2.43667	-0.030669	-0.002696963
437.729	15.3704	2.437139	-0.0304422	-0.00289077
438.6084	15.4248	2.4394	-0.030498	-0.002816828
439.4873	15.4891	2.43912	-0.0301138	-0.00257014
440.366	15.5033	2.43949	-0.030108	-0.00258524
441.245	15.5897	2.44207	-0.0301668	-0.00298524
442.124	15.62954	2.4419	-0.0299756	-0.00300493
443.003	15.6733	2.44254	-0.0299164	-0.002908519
443.882	15.7568	2.4439	-0.0295614	-0.00277005
444.761	15.8027	2.444418	-0.0295251	-0.00284459
445.64	15.8486	2.44483	-0.0293271	-0.00297152
446.519	15.8871	2.447612	-0.0293213	-0.00302498
447.397	15.9356	2.447253	-0.029225	-0.00266045
448.276	15.9657	2.447999	-0.0292259	-0.00261551
449.155	16.0163	2.44989	-0.0289677	-0.00278352
450.034	16.0574	2.45011	-0.0290048	-0.00295933
450.913	16.1178	2.4509	-0.0285849	-0.00281137
451.792	16.1714	2.45291	-0.028507	-0.0025985
452.6709	16.2034	2.45249	-0.02823177	-0.00275048
453.5498	16.2739	2.45293	-0.0282664	-0.00304999
454.429	16.2873	2.45477	-0.0282798	-0.0030084
455.308	16.3277	2.45492	-0.0279391	-0.00281638
456.187	16.3893	2.45609	-0.0279462	-0.00279425
457.065	16.4168	2.45757	-0.0279841	-0.00299042
457.944	16.4542	2.45718	-0.0276971	-0.00301894
458.823	16.5493	2.458771	-0.02730602	-0.00263213
459.702	16.5623	2.46056	-0.0273361	-0.0026269
460.581	16.6057	2.46063	-0.0273471	-0.00282782
461.46	16.6896	2.46154	-0.0270764	-0.00289201
462.339	16.7117	2.46268	-0.027039	-0.00265155
463.218	16.7392	2.46347	-0.0269782	-0.00261828
464.097	16.8307	2.46464	-0.0267727	-0.00275662
464.976	16.8324	2.46492	-0.0267263	-0.00303913
465.854	16.8711	2.46608	-0.0267745	-0.00286718
466.7334	16.96797	2.46706	-0.0264152	-0.00275877
467.6123	16.9577	2.46748	-0.0264282	-0.002883482
468.491	17.012	2.46898	-0.0261928	-0.00306819
469.37	17.108	2.46903	-0.0261503	-0.00279987
470.249	17.1128	2.47032	-0.0258755	-0.00263624
471.128	17.1455	2.47195	-0.0258678	-0.00262863
472.007	17.2363	2.47226	-0.025554	-0.00261144
472.886	17.2383	2.47281	-0.0255555	-0.0028632
473.765	17.284	2.47417	-0.0255633	-0.0027103
474.644	17.3598	2.47444	-0.0255225	-0.00228139
475.522	17.3942	2.4753	-0.0252868	-0.00287085
476.401	17.4526	2.47629	-0.0249477	-0.0027429
477.28	17.5342	2.47722	-0.0249549	-0.00269786
478.159	17.5821	2.4781	-0.0249304	-0.00253317
479.038	17.6189	2.4796	-0.0246778	-0.00277352
479.917	17.6842	2.47979	-0.0247066	-0.00302129
480.7959	17.7019	2.480253	-0.0244152	-0.003000515
481.6748	17.7307	2.48175	-0.0243628	-0.00263466
482.554	17.7814	2.481914	-0.024055	-0.00256588
483.433	17.8189	2.48327	-0.0240596	-0.002799148
484.312	17.8626	2.48488	-0.0236465	-0.00289019
485.19	17.9063	2.48447	-0.0236436	-0.002711073
486.069	17.9572	2.4864	-0.0236372	-0.00257087
486.948	17.9954	2.48816	-0.0233884	-0.00298666
487.827	18.0273	2.48702	-0.0234025	-0.00305793
488.706	18.0713	2.488518	-0.0234073	-0.00260018
489.585	18.1205	2.48998	-0.0234069	-0.00271904
490.464	18.1623	2.4909	-0.0231482	-0.00285987
491.343	18.2435	2.49078	-0.0229158	-0.0028034
492.222	18.2902	2.49278	-0.0228223	-0.00260186
493.101	18.3313	2.49344	-0.0227958	-0.00263309
493.979	18.4079	2.49348	-0.0225261	-0.00260546
494.8584	18.4318	2.49529	-0.0225518	-0.00261192
495.7373	18.4637	2.49558	-0.0221996	-0.002635021
496.616	18.536	2.49652	-0.0221647	-0.00245324
497.495	18.565	2.49874	-0.0218456	-0.00230917
498.374	18.5895	2.498585	-0.0218771	-0.00284442
499.253	18.6603	2.49849	-0.0219419	-0.00273876
500.132	18.6865	2.50018	-0.0216543	-0.00278785
501.011	18.7142	2.501472	-0.0215889	-0.00250067
501.89	18.798	2.50181	-0.02133	-0.00248378
502.769	18.8162	2.50309	-0.0213509	-0.00269603
503.647	18.8567	2.50414	-0.021023	-0.00307948
504.526	18.9369	2.50496	-0.0210037	-0.00280037
505.405	18.9711	2.50627	-0.0205896	-0.00237901
506.284	18.9862	2.50697	-0.0205732	-0.00240599
507.163	19.0628	2.50705	-0.0203623	-0.00282535
508.042	19.1042	2.50856	-0.020348	-0.00292344
508.9209	19.1385	2.50925	-0.0200423	-0.00266688
509.7998	19.2119	2.50958	-0.020067	-0.00260606
510.679	19.2742	2.51099	-0.0201045	-0.0028959
511.558	19.32729	2.51213	-0.0198437	-0.00304562
512.437	19.382	2.51215	-0.01949764	-0.00295637
513.315	19.4097	2.51358	-0.0194819	-0.00273822
514.194	19.4369	2.51404	-0.0195115	-0.002528
515.073	19.488	2.51516	-0.0192558	-0.00297785
515.952	19.53334	2.51568	-0.0188461	-0.0030188
516.831	19.5756	2.51728	-0.0187261	-0.00266527
517.71	19.6156	2.51668	-0.018751	-0.002583886
518.589	19.6705	2.517832	-0.0184832	-0.00273731
519.468	19.7165	2.52049	-0.0182077	-0.00265489
520.347	19.7544	2.52012	-0.01815981	-0.00278003
521.226	19.8082	2.520689	-0.0181311	-0.00230372
522.104	20.0633	2.524545	-0.0172901	-0.00249915
522.9834	20.0093	2.5233	-0.0173232	-0.00303174
523.8623	20.006	2.52422	-0.0173622	-0.00271211
524.741	20.09199	2.52697	-0.017045	-0.00251207
525.62	20.0766	2.52659	-0.0169911	-0.00274782
526.499	20.1131	2.52707	-0.01673379	-0.00274569
527.378	20.1415	2.5277	-0.0168086	-0.00304349
528.257	20.1592	2.52756	-0.0166918	-0.00240819
529.136	20.2408	2.52877	-0.01641069	-0.002338195
530.015	20.2766	2.531038	-0.0164169	-0.00249656
530.894	20.2961	2.53063	-0.0164199	-0.00262148
531.772	20.39105	2.53176	-0.016142	-0.00278729
532.651	20.4252	2.533114	-0.0160808	-0.00255557
533.53	20.4691	2.53468	-0.0157934	-0.00241757
534.409	20.5404	2.533776	-0.0155598	-0.00274237
535.288	20.5681	2.53548	-0.0155449	-0.00274643
536.167	20.5981	2.53616	-0.0152015	-0.002784912
537.0459	20.6761	2.5373	-0.0148749	-0.00270498
537.9248	20.7074	2.539	-0.0149909	-0.00286371
538.804	20.722	2.53955	-0.0146492	-0.00308551
539.683	20.7916	2.53906	-0.014641	-0.00283042
540.562	20.8254	2.540108	-0.0142356	-0.00261136
541.44	20.8507	2.5424	-0.0142449	-0.00258923
542.319	20.91	2.54185	-0.013943	-0.00252416
543.198	20.972	2.54368	-0.0136569	-0.00262482
544.077	21.01907	2.54454	-0.0135841	-0.00262882
544.956	21.0696	2.54437	-0.013248	-0.00226391
545.835	21.1164	2.54564	-0.0129748	-0.00247273
546.714	21.1404	2.54729	-0.01274321	-0.00269935
547.593	21.1898	2.547477	-0.0126944	-0.00271733
548.472	21.2284	2.54815	-0.0123877	-0.00255011
549.351	21.2655	2.54996	-0.0121388	-0.002433354
550.229	21.28684	2.54975	-0.0121099	-0.0025619
551.1084	21.34086	2.55075	-0.0118535	-0.00274762
551.9873	21.3958	2.55229	-0.011519	-0.00266147
552.866	21.4225	2.55261	-0.0114186	-0.00237383
553.745	21.4721	2.55363	-0.0111924	-0.00255952
554.624	21.5058	2.55533	-0.0112036	-0.00248273
555.503	21.5261	2.55455	-0.0109795	-0.00261756
556.382	21.5858	2.55612	-0.01069543	-0.00281449
557.261	21.6518	2.55832	-0.01031918	-0.00263441
558.14	21.6735	2.55815	-0.0103465	-0.00260101
559.019	21.7479	2.55873	-0.0100775	-0.00295673
559.897	21.801	2.56063	-0.009769951	-0.003065455
560.776	21.8077	2.56133	-0.00973983	-0.00285847
561.655	21.8652	2.562104	-0.00941139	-0.00248298
562.534	21.90542	2.563611	-0.00905609	-0.00256981
563.413	21.9029	2.56435	-0.0091285	-0.00306076
564.292	21.965	2.56404	-0.00875847	-0.00282873
565.1709	21.9963	2.56528	-0.00840282	-0.00257702
566.0498	21.9992	2.56593	-0.00812387	-0.00262326
566.929	22.0655	2.56636	-0.00786854	-0.00284422
567.808	22.0991	2.56829	-0.007893133	-0.002807914
568.687	22.1207	2.5692	-0.00753479	-0.002557205
569.565	22.1716	2.5691	-0.00725481	-0.00251214
570.444	22.2299	2.57098	-0.00700126	-0.00302648
571.323	22.2095	2.57111	-0.00662693	-0.00297078
572.202	22.3121	2.57268	-0.00635111	-0.00272405
573.081	22.3621	2.57401	-0.006059	-0.0028289
573.96	22.3702	2.57453	-0.00584249	-0.00308619
574.839	22.4177	2.57476	-0.00546836	-0.00288491
575.718	22.48148	2.57555	-0.00507865	-0.00261816
576.597	22.5192	2.57704	-0.00479184	-0.00272777
577.476	22.5541	2.57632	-0.00455983	-0.00287455
578.354	22.6166	2.57905	-0.00421329	-0.002866
579.2334	22.6127	2.58022	-0.00390637	-0.002612714
580.1123	22.6449	2.5795	-0.00358609	-0.00280022
580.991	22.7032	2.5813	-0.003343774	-0.00307317
581.87	22.7232	2.58212	-0.0030981	-0.00302879
582.749	22.7465	2.58273	-0.0027094	-0.00281605
583.628	22.7832	2.58323	-0.00238876	-0.00291991
584.507	22.9079	2.58439	-0.00179753	-0.00324572
585.386	22.8588	2.58561	-0.00154547	-0.00316076
586.265	22.8991	2.5859	-0.00147522	-0.00271635
587.144	22.9561	2.58828	-0.000848151	-0.00264265
588.022	22.9798	2.5876	-0.000606852	-0.002807
588.901	23.0689	2.588661	-5.04232e-05	-0.0029518
589.78	23.0444	2.59097	0.000233669	-0.00279183
590.659	23.0525	2.58997	0.00032178	-0.00259078
591.538	23.0839	2.59063	0.000690468	-0.0027394
592.417	23.0711	2.59289	0.000944153	-0.00301804
593.2959	23.0599	2.59247	0.000956486	-0.00298677
594.1748	23.1307	2.5927	0.001217716	-0.00279144
595.054	23.1802	2.59461	0.0014643	-0.00277468
595.933	23.1904	2.59442	0.0017438	-0.0029441
596.812	23.27984	2.595386	0.00205485	-0.00310271
597.69	23.3174	2.59824	0.00237409	-0.00284076
598.569	23.32933	2.59866	0.00303114	-0.002598376
599.448	23.40361	2.59907	0.003375879	-0.0026194
600.327	23.4512	2.60035	0.00359874	-0.0028712
601.206	23.4435	2.60088	0.00388691	-0.00293736
602.085	23.5183	2.60179	0.00446116	-0.00278082
602.964	23.5409	2.60322	0.00484001	-0.00263609
603.843	23.5287	2.60329	0.00510465	-0.00274732
604.722	23.5778	2.60368	0.005739985	-0.00307763
605.601	23.6266	2.60574	0.00601138	-0.00304536
606.479	23.6281	2.606673	0.00634806	-0.0028485
607.3584	23.6852	2.6063	0.00668795	-0.002772921
608.2373	23.7361	2.60867	0.00729221	-0.00284923
609.116	23.72821	2.60912	0.00747571	-0.0030502
609.995	23.77457	2.60933	0.00785881	-0.00306364
610.874	23.8393	2.61084	0.00848584	-0.00272096
611.753	23.8276	2.61157	0.0090496	-0.002651226
612.632	23.8626	2.61193	0.00937159	-0.00273651
613.511	23.9128	2.61388	0.0099682	-0.00294621
614.39	23.9197	2.61508	0.0103976	-0.00285581
615.269	23.9402	2.61444	0.0106991	-0.00271772
616.147	23.9931	2.61588	0.0109855	-0.00260632
617.026	24.0232	2.617861	0.0115494	-0.00287705
617.905	24.0424	2.61758	0.0118966	-0.00310346
618.784	24.0869	2.61837	0.0124779	-0.00304433
619.663	24.1143	2.620568	0.0130956	-0.00279774
620.542	24.1234	2.62021	0.0130782	-0.00282275
621.4209	24.1735	2.62136	0.0136859	-0.00288265
622.2998	24.1855	2.62283	0.0142457	-0.00304479
623.179	24.1881	2.62283	0.0145815	-0.0030654
624.058	24.2562	2.62388	0.0152753	-0.00275167
624.937	24.2897	2.62601	0.0156132	-0.00262184
625.815	24.2768	2.62578	0.0159103	-0.002688
626.694	24.3462	2.62637	0.0164924	-0.00288748
627.573	24.3758	2.62864	0.0170272	-0.00289826
628.452	24.3545	2.62803	0.0173734	-0.00285187
629.331	24.4327	2.62996	0.0179834	-0.00262474
630.21	24.444	2.63097	0.0182755	-0.00263666
631.089	24.4151	2.63108	0.018496	-0.00302084
631.968	24.5108	2.63242	0.0191072	-0.00306034
632.847	24.4563	2.63234	0.0194166	-0.00297406
633.726	24.4543	2.63325	0.0197701	-0.00280686
634.604	24.5312	2.63432	0.0201906	-0.00277956
635.4834	24.5565	2.63579	0.020807	-0.00294096
636.3623	24.5457	2.636205	0.0210707	-0.00313275
637.241	24.6082	2.63622	0.02167342	-0.00299147
638.12	24.6527	2.63836	0.0220875	-0.00263794
638.999	24.63295	2.63911	0.0226318	-0.00265687
639.878	24.6779	2.63928	0.022882	-0.0028018
640.757	24.7263	2.640801	0.0234964	-0.00290277
641.636	24.74934	2.64204	0.0240831	-0.00280291
642.515	24.7694	2.64154	0.024691	-0.00264356
643.394	24.8275	2.64301	0.02509895	-0.00263592
644.272	24.83765	2.64489	0.0258812	-0.00303411
645.151	24.8461	2.644	0.0261645	-0.00308547
646.03	24.8807	2.64536	0.0268422	-0.00289175
646.909	24.8814	2.64744	0.0274353	-0.00277127
647.788	24.8923	2.64727	0.0280751	-0.00289627
648.667	24.9349	2.64813	0.028266	-0.003105588
649.5459	24.9504	2.6505	0.0288736	-0.003006184
650.4248	24.9453	2.65044	0.0292477	-0.00262829
651.304	24.9978	2.65092	0.0300304	-0.00261738
652.183	25.0259	2.65346	0.0305589	-0.00286644
653.062	25.0162	2.65233	0.0308222	-0.00293372
653.94	25.0875	2.65394	0.0314268	-0.00284056
654.819	25.0937	2.65532	0.0320695	-0.00261063
655.698	25.069	2.65511	0.032678	-0.00246407
656.577	25.13	2.656471	0.0332065	-0.00281204
657.456	25.1413	2.657654	0.0334744	-0.00285661
658.335	25.1284	2.65827	0.0341539	-0.002642951
659.214	25.2009	2.658819	0.0344818	-0.00276585
660.093	25.2434	2.66078	0.0354081	-0.00263712
660.972	25.2111	2.66079	0.0356907	-0.00307032
661.851	25.2759	2.66117	0.0363089	-0.00298948
662.729	25.2973	2.66289	0.036931	-0.00262087
663.6084	25.29965	2.66377	0.0375224	-0.00260269
664.4873	25.3926	2.6646	0.0383897	-0.00286305
665.366	25.3438	2.66577	0.0389087	-0.00295947
666.245	25.35895	2.66673	0.0396558	-0.002581093
667.124	25.4339	2.66626	0.0403563	-0.00259361
668.003	25.4086	2.66859	0.0409478	-0.00272085
668.882	25.36784	2.66862	0.0411414	-0.00303441
669.761	25.4176	2.669456	0.0417713	-0.00306796
670.64	25.4386	2.67074	0.0424189	-0.0029034
671.519	25.4277	2.67227	0.0427421	-0.0025259
672.397	25.4534	2.67131	0.0432503	-0.002896548
673.276	25.4784	2.67318	0.0438649	-0.00308624
674.155	25.48501	2.67454	0.0445501	-0.00310593
675.034	25.5019	2.67505	0.044918	-0.00275005
675.913	25.552	2.67594	0.0455687	-0.00266251
676.792	25.5733	2.67804	0.0461202	-0.00272109
677.6709	25.5689	2.67705	0.0466995	-0.00286466
678.5498	25.6052	2.67776	0.04722105	-0.00298925
679.429	25.6192	2.68025	0.0478474	-0.00259228
680.308	25.6184	2.67963	0.0485114	-0.00239801
681.187	25.6573	2.68037	0.04909876	-0.00245338
682.065	25.6723	2.68221	0.0497467	-0.00277529
682.944	25.6596	2.68281	0.0502863	-0.00284057
683.823	25.7151	2.68372	0.0509051	-0.00305272
684.702	25.7397	2.68576	0.0515564	-0.00282053
685.581	25.7133	2.68498	0.0521716	-0.00254192
686.46	25.7705	2.6858	0.0527901	-0.00297395
687.339	25.7718	2.68829	0.0536318	-0.00311255
688.218	25.7474	2.68768	0.0539759	-0.00283249
689.097	25.8054	2.68893	0.0547484	-0.002368127
689.976	25.8336	2.69037	0.0552807	-0.00246083
690.854	25.7977	2.69099	0.0558798	-0.00290723
691.7334	25.86	2.691855	0.0564034	-0.00297078
692.6123	25.9016	2.69306	0.057394	-0.00272304
693.491	25.8634	2.69403	0.0579814	-0.0025923
694.37	25.90691	2.69466	0.0585105	-0.00288644
695.249	25.9279	2.69522	0.0592323	-0.00307658
696.128	25.9127	2.69623	0.0601587	-0.00301318
697.007	25.9407	2.69652	0.0607373	-0.002833399
697.886	25.9288	2.69791	0.0613616	-0.00278828
698.765	25.9368	2.69907	0.0619309	-0.00297357
699.644	25.9808	2.69943	0.0624532	-0.00312472
700.522	25.972	2.7001	0.0631522	-0.00249514
701.401	25.9648	2.70193	0.0637749	-0.00262541
702.28	25.9878	2.70235	0.0644177	-0.00240441
703.159	26.0418	2.70348	0.0650349	-0.0026491
704.038	26.012	2.70502	0.0656065	-0.00264463
704.917	26.02	2.70483	0.0662406	-0.00241171
705.7959	26.055	2.706	0.0668181	-0.0023317
706.6748	26.0685	2.70729	0.0674119	-0.00262761
707.554	26.0681	2.70724	0.0679397	-0.00309231
708.433	26.1103	2.70852	0.0685904	-0.0027728
709.312	26.1337	2.70997	0.0697055	-0.00280851
710.19	26.1202	2.7096	0.070268	-0.00256158
711.069	26.1634	2.71048	0.0711878	-0.00293801
711.948	26.1633	2.7127	0.0716825	-0.003083671
712.827	26.1394	2.71237	0.0723498	-0.00286807
713.706	26.1761	2.71366	0.0729784	-0.00238557
714.585	26.1825	2.71506	0.0739688	-0.002641316
715.464	26.1549	2.71592	0.0744805	-0.00262693
716.343	26.2138	2.71655	0.0750635	-0.00270082
717.222	26.2406	2.71783	0.0760073	-0.002533583
718.101	26.20454	2.7182	0.0762786	-0.00233704
718.979	26.2577	2.71872	0.07722038	-0.00268315
719.8584	26.2742	2.72038	0.0779804	-0.00274198
720.7373	26.2286	2.72134	0.07878755	-0.00307473
721.616	26.2906	2.72113	0.0793562	-0.00290374
722.495	26.275	2.72287	0.0799814	-0.00252868
723.374	26.2471	2.72302	0.0806363	-0.00282357
724.253	26.3098	2.72425	0.08143045	-0.00280419
725.132	26.3276	2.72509	0.08202526	-0.0028322
726.011	26.3202	2.72633	0.0826673	-0.00251424
726.89	26.3569	2.72647	0.08372248	-0.00241207
727.769	26.3771	2.72812	0.0843134	-0.0023973
728.647	26.341	2.72945	0.0852074	-0.00263401
729.526	26.367	2.729598	0.0857439	-0.00266067
730.405	26.3873	2.730346	0.0866706	-0.00262585
731.284	26.37129	2.73164	0.0872789	-0.0024349
732.163	26.3873	2.73207	0.0879143	-0.00239861
733.042	26.4155	2.73264	0.0888682	-0.00258304
733.9209	26.4161	2.73437	0.0897664	-0.0028397
734.7998	26.4153	2.73484	0.0902886	-0.00307039
735.679	26.4422	2.73596	0.0912234	-0.002657396
736.558	26.4195	2.73729	0.0918602	-0.0025381
737.437	26.416	2.73724	0.092485	-0.00251306
738.315	26.4504	2.73833	0.0934042	-0.00267053
739.194	26.45071	2.73964	0.0942882	-0.00284188
740.073	26.4273	2.73941	0.0946378	-0.00276605
740.952	26.4811	2.740659	0.0955733	-0.00250655
741.831	26.4791	2.7421	0.0965058	-0.00242526
742.71	26.4503	2.74216	0.0971153	-0.0024007
743.589	26.5175	2.74316	0.0979379	-0.00265447
744.468	26.5083	2.74486	0.0988616	-0.00262177
745.347	26.4795	2.745276	0.0994338	-0.00283852
746.226	26.5408	2.74622	0.100369	-0.00261719
747.104	26.53735	2.74746	0.101276	-0.00256547
747.9834	26.5027	2.74731	0.1018659	-0.00286959
748.8623	26.5611	2.74864	0.102382	-0.00300234
749.741	26.54085	2.74939	0.103443	-0.0027606
750.62	26.5149	2.75094	0.104006	-0.00255076
751.499	26.58069	2.75134	0.104977	-0.00251743
752.378	26.5657	2.75279	0.10548	-0.00285311
753.257	26.5361	2.75408	0.106383	-0.00306395
754.136	26.5859	2.7536	0.106993	-0.00272313
755.015	26.5851	2.75536	0.108051	-0.002625233
755.894	26.5604	2.75638	0.108994	-0.00258147
756.772	26.6042	2.75603	0.109576	-0.00275313
757.651	26.65613	2.758357	0.111003	-0.00267282
758.53	26.59053	2.7586	0.111958	-0.00283126
759.409	26.6425	2.75983	0.113052	-0.00238575
760.288	26.5899	2.759974	0.113906	-0.00242566
761.167	26.5295	2.76152	0.1143923	-0.00306959
762.0459	26.58008	2.76193	0.114989	-0.00303683
762.9248	26.5945	2.763011	0.1157085	-0.00285875
763.804	26.572	2.76397	0.116269	-0.00274709
764.683	26.5897	2.76402	0.116847	-0.00288996
765.562	26.6228	2.7652	0.117829	-0.00306677
766.44	26.6048	2.767	0.118453	-0.00292999
767.319	26.66	2.764662	0.1193689	-0.00266631
768.198	26.67485	2.76828	0.120586	-0.00260085
769.077	26.6195	2.769217	0.12122	-0.00261206
769.956	26.6296	2.76992	0.121728	-0.002952161
770.835	26.6424	2.77007	0.122319	-0.00290576
771.714	26.6132	2.77181	0.12306	-0.00269351
772.593	26.6033	2.77237	0.123654	-0.00262596
773.472	26.6585	2.77335	0.124492	-0.00296572
774.351	26.6503	2.77485	0.125058	-0.00307374
775.229	26.6271	2.77524	0.12568	-0.00305828
776.1084	26.7167	2.77582	0.126549	-0.00262433
776.9873	26.8342	2.77109	0.1343	-0.002819133
777.866	26.6259	2.78303	0.135172	-0.00286433
778.745	26.5811	2.78377	0.13604	-0.00306952
779.624	26.4733	2.77566	0.136342	-0.00312735
780.503	26.4193	2.77635	0.136705	-0.0028762
781.382	26.4975	2.78121	0.136975	-0.00264392
782.261	26.4463	2.78162	0.137435	-0.00270081
783.14	26.3727	2.78367	0.137424	-0.00258045
784.019	26.4751	2.78381	0.137979	-0.00292664
784.897	26.5469	2.78592	0.138291	-0.00292616
785.776	26.4618	2.78561	0.138332	-0.00281002
786.655	26.5578	2.78555	0.138901	-0.00259987
787.534	26.5886	2.78691	0.139515	-0.00275282
788.413	26.5694	2.78891	0.13976	-0.00279964
789.292	26.6411	2.78943	0.140012	-0.00285853
790.1709	26.661	2.78993	0.140963	-0.002794459
791.0498	26.6251	2.79112	0.141283	-0.00286802
791.929	26.7004	2.79168	0.141869	-0.00251605
792.808	26.7348	2.79269	0.142829	-0.00291006
793.687	26.6858	2.79397	0.143611	-0.00310959
794.565	26.7204	2.79379	0.1443453	-0.00278808
795.444	26.7445	2.79571	0.145239	-0.00247367
796.323	26.6854	2.79694	0.145888	-0.002684684
797.202	26.6986	2.79572	0.146452	-0.0027132
798.081	26.7468	2.79815	0.14772	-0.00290403
798.96	26.6945	2.799289	0.148277	-0.0026726
799.839	26.6766	2.79872	0.148948	-0.00280348
800.718	26.7765	2.8	0.149865	-0.002573427
801.597	26.7364	2.80083	0.1507653	-0.00275751
802.476	26.6959	2.80156	0.151632	-0.00283128
803.354	26.7732	2.80301	0.152649	-0.0030736
804.2334	26.7277	2.80422	0.153587	-0.00291943
805.1123	26.6717	2.80454	0.154225	-0.00279951
805.991	26.7574	2.805649	0.155414	-0.00254502
806.87	26.7308	2.80711	0.155904	-0.002754973
807.749	26.67317	2.80706	0.156637	-0.00313805
808.628	26.7653	2.80863	0.15794	-0.00293233
809.507	26.7489	2.81012	0.158826	-0.00266142
810.386	26.6848	2.80988	0.159457	-0.00267153
811.265	26.7817	2.81193	0.160565	-0.00282675
812.144	26.7575	2.81217	0.161491	-0.00294429
813.022	26.6761	2.81363	0.162494	-0.00293954
813.901	26.832	2.81453	0.163404	-0.00271685
814.78	26.7434	2.8148	0.1646066	-0.0026329
815.659	26.6645	2.81622	0.16513	-0.00283263
816.538	26.7275	2.81633	0.165769	-0.00307167
817.417	26.72834	2.81754	0.167095	-0.00308088
818.2959	26.65852	2.81851	0.167694	-0.00294732
819.1748	26.71171	2.81947	0.168591	-0.00282251
820.054	26.7228	2.82016	0.1694946	-0.00277464
820.933	26.6463	2.821228	0.170058	-0.00292948
821.812	26.6958	2.82147	0.1709286	-0.00309567
822.69	26.7176	2.8229	0.171969	-0.003014877
823.569	26.6898	2.82381	0.1732015	-0.002719942
824.448	26.7008	2.82404	0.173804	-0.00262377
825.327	26.7237	2.82546	0.1750153	-0.002658847
826.206	26.6743	2.82587	0.175851	-0.00261018
827.085	26.6595	2.82662	0.176846	-0.00269032
827.964	26.7293	2.82809	0.177742	-0.00270548
828.843	27.086	2.82449	0.186305	-0.00255476
829.722	26.72373	2.82972	0.1918295	-0.00241635
830.601	26.5634	2.83315	0.193056	-0.00237237
831.479	26.4023	2.82748	0.193875	-0.00264469
832.3584	26.3576	2.83161	0.193888	-0.00304909
833.2373	26.3765	2.834	0.194457	-0.00282715
834.116	26.28966	2.83412	0.1944728	-0.00301103
834.995	26.2669	2.83432	0.19482	-0.00284162
835.874	26.3112	2.83696	0.194807	-0.00259111
836.753	26.2449	2.83617	0.1951	-0.00257734
837.632	27.2302	2.833667	0.1953703	-0.00298803
838.511	26.745	2.83915	0.204163	-0.00316654
839.39	26.0381	2.84327	0.204172	-0.00311273
840.269	25.87484	2.84012	0.203931	-0.00279728
841.147	25.9176	2.84288	0.203961	-0.00267273
842.026	25.957	2.83901	0.20396	-0.0027123
842.905	26.2801	2.83713	0.208821	-0.00281621
843.784	25.6772	2.84184	0.206991	-0.0029219
844.663	25.7178	2.84453	0.207239	-0.00295405
845.542	26.2059	2.83555	0.208801	-0.00294919
846.4209	26.3247	2.85053	0.208842	-0.00274109
847.2998	26.4141	2.85211	0.20974	-0.00265487
848.179	26.0898	2.83918	0.209746	-0.00276812
849.058	26.0069	2.84658	0.209698	-0.00303643
849.937	26.0197	2.85106	0.20966	-0.00313768
850.815	26.0624	2.8507	0.209665	-0.00313811
851.694	26.1408	2.841435	0.21	-0.00301043
852.573	26.1736	2.85346	0.2102879	-0.00294572
853.452	26.153	2.85455	0.210719	-0.00277379
854.331	26.1934	2.85428	0.210665	-0.00284615
855.21	27.0757	2.85959	0.213695	-0.00291913
856.089	26.3584	2.85996	0.221275	-0.00301717
856.968	26.2539	2.862957	0.221298	-0.00311903
857.847	26.2127	2.86182	0.22189	-0.00317341
858.726	25.9486	2.85616	0.221532	-0.003021009
859.604	25.9427	2.86278	0.22164	-0.00277391
860.4834	25.94537	2.86246	0.221927	-0.00271537
861.3623	25.8693	2.86096	0.221642	-0.00271097
862.241	25.8685	2.861676	0.221691	-0.00265146
863.12	26.6126	2.85872	0.22772	-0.002818957
863.999	26.1169	2.86713	0.2291874	-0.00294228
864.878	25.7696	2.8656	0.228537	-0.00299847
865.757	25.7989	2.86519	0.22859	-0.00298022
866.636	26.70384	2.86203	0.229142	-0.00292804
867.515	25.6518	2.86951	0.232919	-0.00277876
868.394	25.706	2.86779	0.231983	-0.002641764
869.272	26.6844	2.87018	0.233431	-0.00270833
870.151	25.8693	2.85739	0.234392	-0.00295464
871.03	25.83576	2.87121	0.236265	-0.00306247
871.909	26.10994	2.87203	0.236491	-0.00310068
872.788	26.1929	2.87093	0.237118	-0.00307012
873.667	26.2407	2.87477	0.238001	-0.0029434
874.5459	26.2267	2.8758	0.238676	-0.00286408
875.4248	26.1641	2.874953	0.2389918	-0.0028364
876.304	26.2181	2.87696	0.239524	-0.00287915
877.183	26.1945	2.87811	0.240518	-0.002833551
878.062	26.08647	2.87746	0.240525	-0.00315214
878.94	26.10671	2.87941	0.2410707	-0.00315459
879.819	26.2044	2.88514	0.242082	-0.00282441
880.698	26.0109	2.87838	0.242133	-0.00265384
881.577	26.0893	2.88269	0.24241	-0.00272228
882.456	26.0654	2.88297	0.242973	-0.00269859
883.335	25.9761	2.88288	0.242982	-0.00292237
884.214	26.0362	2.88443	0.24319	-0.00299876
885.093	26.0619	2.88501	0.243814	-0.00292586
885.972	25.99	2.88583	0.243858	-0.00276628
886.851	26.106	2.88817	0.244477	-0.00256926
887.729	26.11525	2.88739	0.245146	-0.002687373
888.6084	26.0631	2.88854	0.245397	-0.00289924
889.4873	26.1357	2.88847	0.245936	-0.00311122
890.366	26.2479	2.8904	0.247148	-0.00308396
891.245	26.2554	2.88947	0.248663	-0.00310832
892.124	26.2463	2.89214	0.250882	-0.002988793
893.003	26.1707	2.89296	0.253333	-0.00291074
893.882	26.0011	2.89381	0.25552	-0.00285007
894.761	25.93152	2.89371	0.256742	-0.00284141
895.64	25.9015	2.89554	0.2584931	-0.00290793
896.519	25.7862	2.89673	0.260121	-0.00301763
897.397	25.7281	2.89694	0.260951	-0.0031284
898.276	25.7548	2.89876	0.262767	-0.00315949
899.155	25.775	2.90069	0.266212	-0.00308405
900.034	25.4378	2.9018	0.272601	-0.00289979
900.913	25.1513	2.90237	0.2777949	-0.00270008
901.792	24.8632	2.90219	0.281785	-0.00268678
902.6709	24.6686	2.90239	0.284917	-0.002698668
903.5498	24.5289	2.90453	0.288478	-0.00272078
904.429	23.9868	2.90561	0.295768	-0.00282881
905.308	17.0532	2.90375	0.381216	-0.002941302
906.187	14.0821	2.9099	0.423674	-0.00273453
907.065	13.1341	2.90732	0.443738	-0.00301404
907.944	12.8032	2.90747	0.449538	-0.00284064
908.823	12.6172	2.90921	0.45349	-0.00271658
909.702	12.3429	2.91215	0.459043	-0.002609
910.581	12.1231	2.90842	0.462189	-0.0023876
911.46	12.0062	2.91166	0.465494	-0.00279003
912.339	11.6743	2.91193	0.4721477	-0.00304651
913.218	10.6361	2.91368	0.490095	-0.00313007
914.097	10.077	2.91444	0.499638	-0.00307898
914.976	9.48978	2.91534	0.509237	-0.00309794
915.854	8.30331	2.915657	0.51978	-0.00271398
916.7334	7.4123	2.91905	0.538706	-0.00286013
917.6123	7.11907	2.91865	0.54481	-0.00280723
918.491	6.681354	2.91746	0.552547	-0.00284752
919.37	6.18515	2.91744	0.559836	-0.00287863
920.249	5.6576	2.92197	0.569534	-0.00304189
921.128	5.30235	2.9191	0.575829	-0.00316461
922.007	4.90513	2.92317	0.583233	-0.00313379
922.886	4.00615	2.92354	0.599091	-0.0029627
923.765	-0.0167693	2.92342	0.587062	-0.00273313
924.644	-0.0218258	2.9257	1.13191	-0.00268687
925.522	-0.02152355	2.92576	1.15729	-0.0026606
926.401	-0.0218617	2.92609	0.980838	-0.00270106
927.28	-0.0209466	2.92825	1.06505	-0.00281767
928.159	-0.0202492	2.93032	1.15238	-0.00291375
928.643	-0.0187237	2.92814	1.07722	-0.00270192