File: shares/flx_lsms_hydrogen/EXPERIMENTAL_DATA/LABO_SOETE/WP1_TENSILE/AIR/MTS/LYARR1/specimen.dat
MTS793|MPT|ENU|1|2|.|/|:|1|0|0|A

Data Acquisition						Time:	15.0195	s	12/17/2021 12:40:02 PM
Time	ESH B Force	ESH B Displacement	Analog In 2	Analog In 1
s	kN	mm	V	V
0.0332031	0.107452	0.999036	-0.00453795	-0.003348
0.677734	0.109358	0.998655	-0.00462397	-0.003684801
1.32227	0.128681	1.0018	-0.00463353	-0.0037189
1.9668	0.127013	1.0033	-0.00458753	-0.00328167
2.61133	0.1143687	1.00323	-0.00458321	-0.00350711
3.25586	0.109322	1.00223	-0.00461087	-0.00378328
3.90039	0.108623	1.00193	-0.00462809	-0.00348751
4.54492	0.1283371	1.00488	-0.00459235	-0.00355313
5.18945	0.143123	1.007	-0.00460192	-0.0036438
5.83398	0.128286	1.00529	-0.00458617	-0.003355334
6.47852	0.115997	1.00515	-0.00461861	-0.00355324
7.12305	0.111066	1.00521	-0.00465789	-0.00372485
7.76758	0.13105	1.007117	-0.00461764	-0.00340395
8.41211	0.146625	1.0105	-0.00455984	-0.00335703
9.05664	0.140122	1.00936	-0.00467204	-0.00381993
9.70117	0.130372	1.00765	-0.00467608	-0.0036157
10.3457	0.134899	1.009593	-0.0045949	-0.003296464
10.9902	0.136117	1.01124	-0.004642264	-0.003594426
11.6348	0.1433883	1.01331	-0.00460987	-0.00362708
12.2793	0.14012	1.01196	-0.004597784	-0.00345621
12.9238	0.142914	1.01127	-0.00461592	-0.00372703
13.5684	0.154788	1.012675	-0.00460197	-0.00360596
14.2129	0.157939	1.01605	-0.00454343	-0.00301016
14.8574	0.145629	1.0162	-0.00462454	-0.00328596
15.502	0.1389634	1.01534	-0.0046302	-0.00343998
16.1465	0.1450959	1.01446	-0.00456706	-0.00312306
16.791	0.168945	1.01693	-0.00456537	-0.00301932
17.4355	0.174427	1.01896	-0.0046679	-0.00346018
18.0801	0.164271	1.01978	-0.00465854	-0.00335332
18.7246	0.143421	1.01687	-0.0045548	-0.00296161
19.3691	0.143212	1.01682	-0.00461938	-0.00322618
20.0137	0.171329	1.02017	-0.004643512	-0.003469724
20.6582	0.189908	1.02245	-0.00461662	-0.00321108
21.3027	0.1737694	1.02176	-0.00463439	-0.00322248
21.9473	0.163232	1.021348	-0.00460982	-0.003324613
22.5918	0.151547	1.01981	-0.00457608	-0.00309677
23.2363	0.174152	1.02374	-0.00461707	-0.00321747
23.8809	0.186789	1.02578	-0.00464793	-0.0034818
24.5254	0.181962	1.02443	-0.00461199	-0.00329501
25.1699	0.177517	1.02346	-0.0045701	-0.0030747
25.8145	0.17542	1.02351	-0.00462786	-0.00344048
26.459	0.1857968	1.0263	-0.00466087	-0.00343469
27.1035	0.195711	1.0298	-0.00459535	-0.00305673
27.748	0.1831426	1.02797	-0.00458537	-0.00313442
28.3926	0.183796	1.02705	-0.00463223	-0.00354539
29.0371	0.20276	1.02881	-0.00459829	-0.00325863
29.6816	0.2077703	1.02991	-0.00460564	-0.00313258
30.3262	0.200489	1.03158	-0.00459481	-0.00330605
30.9707	0.186632	1.02986	-0.00457287	-0.00312868
31.6152	0.198375	1.03027	-0.00461472	-0.00320585
32.2598	0.215965	1.0321	-0.00469612	-0.00350534
32.9043	0.226998	1.03431	-0.00464519	-0.00318138
33.5488	0.21727	1.03538	-0.00457322	-0.00305027
34.1934	0.2022552	1.03251	-0.004610633	-0.00345376
34.8379	0.198776	1.03267	-0.00465513	-0.0034039
35.4824	0.2204556	1.03551	-0.004527864	-0.00267776
36.127	0.236415	1.0375	-0.00461688	-0.00292969
36.7715	0.231708	1.03779	-0.00464765	-0.00341538
37.416	0.219817	1.03665	-0.00458004	-0.00290874
38.0605	0.198623	1.03491	-0.00467665	-0.0030325
38.7051	0.229521	1.03902	-0.00462029	-0.00299791
39.3496	0.241152	1.04127	-0.00458291	-0.00270035
39.9941	0.229586	1.0404	-0.00459679	-0.00300774
40.6387	0.227522	1.03929	-0.00468468	-0.003460129
41.2832	0.225088	1.03885	-0.00459273	-0.00280489
41.9277	0.248052	1.04257	-0.0045663	-0.00278051
42.5723	0.233125	1.04435	-0.0046944	-0.00328139
43.2168	0.227013	1.04368	-0.00463051	-0.00303564
43.8613	0.229031	1.04246	-0.00457379	-0.00267035
44.5059	0.240278	1.04294	-0.00465303	-0.00304601
45.1504	0.260508	1.04526	-0.00463012	-0.00300878
45.7949	0.266903	1.04813	-0.00460208	-0.00288012
46.4395	0.245208	1.04646	-0.0046587	-0.00310687
47.084	0.243468	1.04514	-0.00460585	-0.00302074
47.7285	0.267948	1.04713	-0.00459574	-0.00273654
48.373	0.282236	1.0491	-0.00463143	-0.00302981
49.0176	0.285341	1.050585	-0.00466485	-0.00314317
49.6621	0.256845	1.04926	-0.00458883	-0.00277142
50.3066	0.250992	1.04874	-0.0045812	-0.00272968
50.9512	0.275525	1.05002	-0.00467384	-0.00322311
51.5957	0.29517	1.05277	-0.00470988	-0.00305072
52.2402	0.293699	1.05363	-0.00458758	-0.00263459
52.8848	0.281156	1.05219	-0.00461776	-0.002944119
53.5293	0.27091	1.05137	-0.00465063	-0.00312597
54.1738	0.2901203	1.05428	-0.00463801	-0.00294273
54.8184	0.303792	1.05653	-0.00459093	-0.00285957
55.4629	0.298434	1.05686	-0.00461542	-0.00306122
56.1074	0.2872555	1.05531	-0.00466029	-0.0029359
56.752	0.274787	1.05335	-0.004648983	-0.00289391
57.3965	0.313331	1.057501	-0.00468176	-0.00304103
58.041	0.323233	1.06026	-0.00468522	-0.00302085
58.6855	0.302392	1.05912	-0.00461018	-0.00273158
59.3301	0.296517	1.0578	-0.00464402	-0.00292846
59.9746	0.301102	1.05772	-0.004701924	-0.00315203
60.6191	0.3353	1.06112	-0.00470754	-0.00296395
61.2637	0.33811	1.06372	-0.00461224	-0.00267568
61.9082	0.3074522	1.06132	-0.00468023	-0.00302959
62.5527	0.308525	1.06136	-0.00470916	-0.003184471
63.1973	0.320931	1.06156	-0.00469067	-0.00287241
63.8418	0.344565	1.064146	-0.00461131	-0.00276742
64.4863	0.357301	1.06699	-0.00467482	-0.00281411
65.1309	0.327623	1.06519	-0.00468573	-0.00313337
65.7754	0.323643	1.064414	-0.0046572	-0.00276032
66.4199	0.342808	1.06598	-0.00459099	-0.00273184
67.0645	0.3439	1.06785	-0.00466662	-0.00289855
67.709	0.36104	1.06922	-0.004657106	-0.00280035
68.3535	0.335069	1.06756	-0.00457371	-0.00231633
68.998	0.340824	1.067185	-0.00461865	-0.0025883
69.6426	0.3629	1.069913	-0.00466085	-0.00290482
70.2871	0.380865	1.07207	-0.00458376	-0.00267217
70.9316	0.373865	1.071825	-0.00457887	-0.00238118
71.5762	0.363513	1.07082	-0.00459905	-0.00268507
72.2207	0.372201	1.07066	-0.004631	-0.002677578
72.8652	0.400693	1.07316	-0.00464036	-0.00258165
73.5098	0.427622	1.07619	-0.00461803	-0.00261015
74.1543	0.411974	1.07536	-0.00464666	-0.002687372
74.7988	0.412028	1.07279	-0.00455502	-0.0025251
75.4434	0.415914	1.0728	-0.00465692	-0.00253992
76.0879	0.4349955	1.07748	-0.00470112	-0.00280354
76.7324	0.449207	1.0788	-0.00465643	-0.00265782
77.377	0.43772	1.07701	-0.00458176	-0.00236881
78.0215	0.388831	1.07664	-0.00465801	-0.00259722
78.666	0.4055827	1.07642	-0.004716218	-0.00285594
79.3105	0.431885	1.08077	-0.00468846	-0.00257518
79.9551	0.441856	1.08171	-0.00462023	-0.00239983
80.5996	0.447652	1.0814	-0.004686906	-0.00267551
81.2441	0.452077	1.08208	-0.00470139	-0.00279707
81.8887	0.444549	1.08265	-0.00460836	-0.00251359
82.5332	0.462253	1.085833	-0.00460558	-0.00244571
83.1777	0.4847976	1.08435	-0.00474009	-0.00284451
83.8223	0.510203	1.08204	-0.00469895	-0.00280334
84.4668	0.5273	1.08414	-0.00464902	-0.00239803
85.1113	0.534276	1.08855	-0.00466688	-0.00249016
85.7559	0.514084	1.08765	-0.00468624	-0.0028842
86.4004	0.512441	1.08523	-0.00470089	-0.002400032
87.0449	0.533656	1.08488	-0.00463999	-0.002348914
87.6895	0.5490005	1.08902	-0.00466397	-0.002317925
88.334	0.552231	1.09156	-0.00470827	-0.00256716
88.9785	0.543628	1.09176	-0.00471414	-0.00229305
89.623	0.519837	1.09005	-0.00469574	-0.00222885
90.2676	0.524368	1.09016	-0.00467731	-0.00238538
90.9121	0.530402	1.08636	-0.00470523	-0.00239259
91.5566	0.552493	1.09277	-0.00466808	-0.00223431
92.2012	0.559418	1.09324	-0.00470107	-0.002507058
92.8457	0.546657	1.09418	-0.00474645	-0.00240584
93.4902	0.524826	1.090739	-0.004644894	-0.002134796
94.1348	0.519312	1.09143	-0.0047045	-0.0022982
94.7793	0.549769	1.09494	-0.0047249	-0.00258608
95.4238	0.58649	1.09713	-0.00466914	-0.00232477
96.0684	0.5652011	1.09648	-0.00463445	-0.002113241
96.7129	0.5368737	1.09462	-0.00469826	-0.00235943
97.3574	0.533149	1.09568	-0.00473341	-0.00254065
98.002	0.597785	1.09966	-0.00465001	-0.0022188
98.6465	0.6113736	1.09965	-0.00464883	-0.00217008
99.291	0.5862534	1.09914	-0.0047023	-0.0025062
99.9355	0.595864	1.09916	-0.00469878	-0.002520198
100.58	0.595655	1.09908	-0.00461269	-0.00213135
101.225	0.624681	1.10127	-0.00464653	-0.00219425
101.869	0.6465	1.1042	-0.0047465	-0.00262443
102.514	0.602336	1.10204	-0.00470418	-0.00244554
103.1582	0.625158	1.10192	-0.004641192	-0.00207341
103.803	0.663859	1.1032	-0.004651899	-0.002339805
104.447	0.6970399	1.10576	-0.004701844	-0.00257066
105.0918	0.684577	1.10692	-0.004699613	-0.00232011
105.736	0.616641	1.10498	-0.00467261	-0.002221
106.381	0.668014	1.105634	-0.0046971	-0.00241348
107.025	0.711076	1.107349	-0.00472331	-0.002402728
107.67	0.749639	1.10932	-0.00465295	-0.00196908
108.314	0.730352	1.1094	-0.00466739	-0.00213177
108.959	0.664136	1.10699	-0.00467752	-0.00245005
109.604	0.700794	1.108453	-0.00464921	-0.00184178
110.248	0.749883	1.11053	-0.0046922	-0.00198599
110.893	0.798442	1.11216	-0.00475973	-0.00229251
111.537	0.79579	1.11354	-0.00467446	-0.002099741
112.182	0.740522	1.1113	-0.00463291	-0.00185973
112.826	0.724743	1.111715	-0.00466526	-0.00207927
113.4707	0.794317	1.11354	-0.00468005	-0.00223959
114.115	0.851556	1.11639	-0.00463349	-0.0019457
114.76	0.837456	1.11553	-0.00459282	-0.00187287
115.4043	0.77542	1.11357	-0.00468677	-0.00222559
116.049	0.809607	1.11473	-0.00471836	-0.00222337
116.693	0.908154	1.11682	-0.00463058	-0.00185907
117.338	0.98816	1.11716	-0.00461851	-0.0016425
117.982	1.0686	1.11925	-0.00467881	-0.00199458
118.627	1.087144	1.12233	-0.00468025	-0.00180962
119.271	1.1035	1.12073	-0.00461772	-0.00158123
119.916	1.091835	1.1212	-0.00465152	-0.00182415
120.561	1.07504	1.1216	-0.00465755	-0.00181645
121.205	1.05356	1.12004	-0.00467295	-0.00170199
121.85	1.07993	1.12069	-0.00471771	-0.00190539
122.494	1.09213	1.12072	-0.00465547	-0.0018387
123.139	1.09984	1.12315	-0.00459374	-0.00158247
123.7832	1.08756	1.124294	-0.00467223	-0.00177906
124.428	1.07187	1.12366	-0.00470209	-0.00198401
125.072	1.08168	1.1259	-0.0046356	-0.00172757
125.7168	1.09107	1.12703	-0.004612382	-0.00161683
126.361	1.10618	1.12848	-0.00466292	-0.00200098
127.006	1.11735	1.12761	-0.00469271	-0.00192489
127.65	1.10701	1.12577	-0.00458886	-0.00154774
128.295	1.11496	1.127744	-0.0046616	-0.00179217
128.939	1.12015	1.12911	-0.00474892	-0.00202507
129.584	1.15188	1.13109	-0.00463732	-0.00150968
130.229	1.1778	1.13261	-0.0046457	-0.00150407
130.873	1.16199	1.12965	-0.00474884	-0.00184492
131.518	1.1831	1.13061	-0.0046323	-0.00141305
132.162	1.22213	1.1328	-0.00468012	-0.00151279
132.807	1.22642	1.134	-0.00474024	-0.00175389
133.451	1.23211	1.134155	-0.00466005	-0.00151563
134.0957	1.22438	1.13365	-0.00461506	-0.00141614
134.74	1.25663	1.1333	-0.004721547	-0.00167016
135.385	1.29564	1.135771	-0.00467274	-0.00170301
136.0293	1.31271	1.13736	-0.00462957	-0.00139185
136.674	1.27907	1.13687	-0.0046277	-0.00148821
137.318	1.28175	1.135675	-0.00469231	-0.00178377
137.963	1.31309	1.13617	-0.0046666	-0.00150387
138.607	1.35383	1.138864	-0.0046496	-0.00145743
139.252	1.40408	1.14041	-0.00465656	-0.00139449
139.896	1.40553	1.1406	-0.00464769	-0.00130545
140.541	1.29193	1.13861	-0.00468539	-0.00150037
141.186	1.3382	1.14	-0.00473412	-0.00147517
141.83	1.46709	1.14239	-0.00469001	-0.00134122
142.475	1.64376	1.13712	-0.004639395	-0.00125684
143.119	1.709	1.14178	-0.00469397	-0.00130622
143.764	1.74425	1.14117	-0.00477332	-0.00126542
144.4082	1.77457	1.14357	-0.00467161	-0.0009468135
145.053	1.81237	1.14821	-0.00465808	-0.000881353
145.697	1.87628	1.14629	-0.00474465	-0.001111369
146.3418	1.97343	1.144678	-0.00464428	-0.000848924
146.986	2.01774	1.14613	-0.00469664	-0.000921971
147.631	2.06383	1.146414	-0.00466882	-0.000643523
148.275	2.12709	1.14825	-0.004668829	-0.00041156
148.92	2.17172	1.15105	-0.0046967	-0.000665916
149.564	2.08667	1.14961	-0.004786	-0.00084275
150.209	2.11167	1.148827	-0.00469022	-0.000428049
150.854	2.16067	1.14935	-0.00462163	-0.000446615
151.498	2.21925	1.15225	-0.00473028	-0.000570412
152.143	2.23067	1.15365	-0.004722415	-0.000332346
152.787	2.145906	1.15125	-0.00466278	-2.48348e-05
153.432	2.17396	1.15135	-0.00470508	-0.000690028
154.076	2.26554	1.15377	-0.00475608	-0.0002798725
154.7207	2.30447	1.15531	-0.00472599	-0.000237752
155.365	2.34598	1.15674	-0.004731799	-0.000171892
156.01	2.25696	1.15495	-0.00470807	-0.000334524
156.6543	2.29682	1.156322	-0.0046707	-0.000121626
157.299	2.39941	1.15708	-0.00471282	-4.59071e-05
157.943	2.45499	1.15934	-0.00474767	-0.000174872
158.588	2.44771	1.16036	-0.0046897	0.000176944
159.232	2.31412	1.15852	-0.00463234	-9.13183e-05
159.877	2.27202	1.16287	-0.00475517	-0.000574428
160.521	2.43235	1.15993	-0.00469991	-7.71676e-05
161.166	2.5416	1.16285	-0.00464001	0.000544261
161.811	2.44979	1.16207	-0.00472534	-5.56679e-06
162.455	2.36298	1.16181	-0.00474117	-0.000220433
163.1	2.35045	1.16147	-0.00468669	-0.000266161
163.744	2.43093	1.16097	-0.0046525	5.30803e-05
164.389	2.447691	1.167052	-0.00470977	-6.27381e-05
165.0332	2.59724	1.16661	-0.004700013	0.000363911
165.678	2.45298	1.16554	-0.00470353	7.720117e-05
166.322	2.374264	1.16476	-0.00470186	-0.000193085
166.9668	2.69771	1.16768	-0.00469249	0.000535116
167.611	2.57127	1.17026	-0.00467261	0.000523385
168.256	2.52474	1.17043	-0.00471073	0.000327537
168.9	2.49238	1.16808	-0.00473684	-0.000209491
169.545	2.55016	1.16808	-0.00467857	0.000313705
170.189	2.56947	1.17063	-0.00462058	0.00049022
170.834	2.8585	1.17191	-0.00472526	0.000805657
171.479	2.6949	1.17185	-0.00475647	0.000378694
172.123	2.60611	1.17214	-0.00468417	0.000434245
172.768	2.62642	1.173135	-0.004664531	0.000517603
173.412	2.71735	1.17524	-0.00469552	0.000391107
174.057	2.8633	1.173533	-0.004722889	0.000683927
174.701	2.69515	1.17423	-0.004659107	0.00083257
175.3457	2.69964	1.17521	-0.00462684	0.000510036
175.99	2.69876	1.17583	-0.00473986	7.05195e-05
176.635	2.76192	1.1774	-0.00467339	0.000533416
177.2793	2.83539	1.17841	-0.00461956	0.000886512
177.924	2.75892	1.17793	-0.00462638	0.00066149
178.568	2.79557	1.17827	-0.0047138	0.000307533
179.213	2.81828	1.178298	-0.004682106	0.000576387
179.857	2.89157	1.18074	-0.00468496	0.00116607
180.502	2.91785	1.18114	-0.00464995	0.000880796
181.146	2.85366	1.18106	-0.00470275	0.000737466
181.791	2.91288	1.18132	-0.00466103	0.000950675
182.436	2.962481	1.1821	-0.00464016	0.00097683
183.08	3.06062	1.18332	-0.00466391	0.0010909
183.725	3.06808	1.18553	-0.004652584	0.00118208
184.369	2.96227	1.18402	-0.00463307	0.000942354
185.014	3.02162	1.184155	-0.00464398	0.000843485
185.6582	3.085536	1.185207	-0.00467031	0.00113661
186.303	3.18058	1.18724	-0.00464967	0.0013196
186.947	3.40386	1.18732	-0.00461565	0.00185642
187.5918	3.3055	1.19008	-0.00470174	0.00137169
188.236	3.29422	1.1885	-0.00467465	0.00142745
188.881	3.22195	1.18904	-0.00461799	0.0016985
189.525	3.22017	1.18959	-0.004678247	0.00157038
190.17	3.254935	1.19111	-0.0047306	0.00128553
190.814	3.16642	1.18962	-0.00465056	0.001228755
191.459	3.18332	1.19016	-0.00464666	0.00171606
192.104	3.29112	1.19217	-0.00465116	0.00149343
192.748	3.65618	1.19352	-0.00473385	0.00216063
193.393	3.56158	1.19515	-0.00467211	0.00217612
194.037	3.46316	1.19285	-0.00460934	0.001964319
194.682	3.34231	1.19431	-0.00470002	0.00140089
195.326	3.43321	1.19576	-0.00475335	0.00162611
195.9707	3.72021	1.19711	-0.00467493	0.00260317
196.615	3.6654	1.19763	-0.00467628	0.00232222
197.26	3.55876	1.19587	-0.004706535	0.00188499
197.9043	3.44476	1.1959	-0.00473075	0.00162568
198.549	3.71064	1.20029	-0.00467406	0.002630875
199.193	3.82351	1.1997	-0.00464829	0.002869773
199.838	3.67299	1.20026	-0.004700148	0.00212904
200.482	3.62287	1.199921	-0.00473692	0.00190292
201.127	3.62688	1.20165	-0.00467259	0.002304052
201.771	3.73726	1.20319	-0.00466885	0.00257052
202.416	3.70826	1.20404	-0.00474388	0.00215337
203.061	3.66992	1.20284	-0.00472082	0.002269581
203.705	3.66654	1.20353	-0.004636771	0.00237525
204.35	3.74038	1.202047	-0.00468476	0.00249509
204.994	3.92623	1.20558	-0.00472104	0.00242578
205.639	3.8431	1.20693	-0.00471385	0.00262461
206.2832	3.75133	1.20602	-0.00464388	0.00265197
206.928	3.78482	1.20725	-0.00468725	0.0024748
207.572	3.80978	1.20711	-0.00470978	0.002087692
208.2168	3.89395	1.20833	-0.00471942	0.00272103
208.861	4.27447	1.20971	-0.00462591	0.00328612
209.506	4.19404	1.209481	-0.00475758	0.003306485
210.15	4.11473	1.20949	-0.00470085	0.002867192
210.795	4.06527	1.21084	-0.00466208	0.003063902
211.439	4.05453	1.21161	-0.00469817	0.0030636
212.084	4.04634	1.21301	-0.0046769	0.00297364
212.729	3.99362	1.21209	-0.00471735	0.00308741
213.373	4.05331	1.21228	-0.00466705	0.00306946
214.018	4.11135	1.21341	-0.00470645	0.00286488
214.662	4.453898	1.21725	-0.00471687	0.00391248
215.307	4.40895	1.21591	-0.00462338	0.00390152
215.951	4.381217	1.21592	-0.00467849	0.003603972
216.5957	4.40345	1.21632	-0.00471776	0.003421152
217.24	4.48359	1.21639	-0.00470247	0.00401197
217.885	4.48892	1.21964	-0.00461386	0.00417259
218.5293	4.47015	1.22012	-0.00472263	0.0035237
219.174	4.52979	1.219154	-0.00470197	0.00375007
219.818	4.47924	1.21916	-0.00462997	0.00413405
220.463	4.43018	1.22049	-0.00463013	0.00385891
221.107	4.42631	1.2217	-0.0047119	0.00340556
221.752	4.53846	1.22152	-0.00469081	0.003870314
222.396	4.64702	1.22152	-0.00465136	0.00458832
223.041	4.64867	1.22158	-0.00466511	0.00430381
223.686	4.66954	1.22614	-0.004677542	0.00406198
224.33	4.64747	1.22582	-0.00468974	0.00435297
224.975	4.61482	1.22229	-0.00462217	0.00412474
225.619	4.59758	1.22574	-0.00465772	0.00387594
226.264	4.55618	1.2251	-0.00467489	0.00402633
226.9082	4.63443	1.22658	-0.00465787	0.00437337
227.553	4.73148	1.22796	-0.0046984	0.00410458
228.197	4.72323	1.22708	-0.00466833	0.00418376
228.8418	4.7584	1.230121	-0.00458699	0.00451825
229.486	4.76596	1.22886	-0.00466815	0.004220977
230.131	4.74595	1.231877	-0.0047491	0.00401115
230.775	4.72206	1.23433	-0.00469516	0.00435557
231.42	4.74266	1.23306	-0.00463945	0.00449397
232.064	4.60837	1.22236	-0.00470725	0.00377085
232.709	4.777504	1.23222	-0.00472829	0.00404404
233.354	4.71964	1.23447	-0.00462257	0.00448519
233.998	4.77611	1.23644	-0.00464563	0.00441895
234.643	4.80398	1.23645	-0.004792212	0.00430783
235.287	4.86801	1.23718	-0.00469143	0.00453872
235.932	4.91427	1.23518	-0.00464599	0.00482613
236.576	4.86256	1.24145	-0.00471402	0.00455482
237.2207	4.85742	1.23711	-0.00477861	0.00438485
237.865	4.95929	1.23854	-0.00467877	0.00493302
238.51	4.99493	1.23823	-0.00472488	0.00491076
239.1543	4.96702	1.23946	-0.00474465	0.004798681
239.799	4.95159	1.24234	-0.00474366	0.00495714
240.443	4.9686	1.24043	-0.00470047	0.00491093
241.088	5.03007	1.24057	-0.00475327	0.00470591
241.732	5.13648	1.24288	-0.00473019	0.00508811
242.377	5.02578	1.24184	-0.00462804	0.00505674
243.021	5.16383	1.24163	-0.0047153	0.005178309
243.666	5.56385	1.24393	-0.00476414	0.00555418
244.311	5.61237	1.24357	-0.00473079	0.006174129
244.955	5.67066	1.24475	-0.00467025	0.00631818
245.6	5.51722	1.24263	-0.00473398	0.00595333
246.244	5.76588	1.24664	-0.00473418	0.00617413
246.889	5.84253	1.24639	-0.004657812	0.00657327
247.5332	5.83395	1.246912	-0.00462941	0.00654296
248.178	5.75026	1.24562	-0.00477012	0.006113451
248.822	5.70123	1.24989	-0.0047129	0.00631465
249.4668	5.67548	1.24977	-0.0046201	0.00634827
250.111	5.60886	1.25004	-0.00465314	0.00607622
250.756	5.62639	1.24985	-0.00470295	0.00586798
251.4	5.68108	1.25082	-0.00465704	0.00614517
252.045	5.79907	1.25217	-0.00473848	0.00640548
252.689	5.93415	1.2546	-0.00470752	0.00663269
253.334	6.068233	1.2534	-0.00465265	0.00688727
253.979	5.98914	1.25412	-0.00466381	0.00679213
254.623	5.82445	1.249428	-0.00473391	0.00620197
255.268	5.89785	1.2556	-0.00470246	0.00669752
255.912	5.88442	1.24952	-0.00466389	0.00667121
256.557	6.05685	1.25766	-0.00470515	0.00665753
257.201	6.02085	1.25653	-0.00474044	0.00652363
257.8457	5.79532	1.26214	-0.0046559	0.00715881
258.49	6.01759	1.25643	-0.004650461	0.00720447
259.135	5.91934	1.25993	-0.00472309	0.0067451
259.7793	6.08118	1.26408	-0.00470015	0.00694603
260.424	5.703465	1.25532	-0.004633165	0.00697437
261.068	6.08263	1.25924	-0.004684459	0.00705534
261.713	6.06923	1.25992	-0.00470477	0.0067123
262.357	6.06024	1.26182	-0.00463979	0.007067645
263.002	6.02753	1.26673	-0.00465943	0.00712074
263.646	5.900908	1.26316	-0.00469601	0.00694622
264.291	6.06466	1.26095	-0.00466616	0.00705637
264.936	6.09393	1.26177	-0.00464335	0.00707495
265.58	6.07811	1.26644	-0.00471978	0.00683265
266.225	6.07698	1.26344	-0.00465837	0.006977696
266.869	6.100359	1.26586	-0.00462572	0.00724502
267.514	6.09875	1.26408	-0.00471454	0.006965097
268.1582	6.10429	1.26762	-0.00472648	0.00681559
268.803	6.12182	1.26914	-0.0047144	0.00747339
269.447	6.07354	1.26762	-0.00463282	0.00720076
270.0918	6.09801	1.26771	-0.004735976	0.006758594
270.736	6.14838	1.273	-0.00465712	0.00722784
271.381	6.18395	1.27059	-0.00464924	0.00759468
272.025	6.2085	1.27164	-0.00468864	0.00732727
272.67	6.25334	1.27168	-0.004720821	0.00721279
273.314	6.27912	1.27185	-0.00466958	0.00767804
273.959	6.27359	1.274664	-0.00469983	0.00749289
274.604	6.29202	1.27561	-0.00473775	0.00754083
275.248	6.31226	1.27549	-0.0046551	0.00783552
275.893	6.34238	1.275517	-0.00471199	0.00762425
276.537	6.32222	1.27487	-0.004714136	0.00745005
277.182	6.37201	1.27641	-0.00460609	0.00776474
277.826	6.39598	1.27846	-0.00459283	0.00782145
278.4707	6.43114	1.27922	-0.00473001	0.00768556
279.115	6.50049	1.2782	-0.00468641	0.00785042
279.76	6.54998	1.279348	-0.00466171	0.00820348
280.4043	6.62854	1.28015	-0.00467132	0.00820149
281.049	6.84038	1.28169	-0.00466251	0.00841216
281.693	7.35373	1.28428	-0.00465407	0.00984893
282.338	7.38168	1.28127	-0.00472766	0.00967871
282.982	7.36989	1.28271	-0.00463689	0.00970838
283.627	7.46301	1.28476	-0.00462988	0.009984049
284.271	7.48142	1.28212	-0.00466824	0.00972881
284.916	7.68656	1.283553	-0.00473445	0.0101829
285.561	7.82365	1.28535	-0.00469394	0.0108284
286.205	7.78078	1.28509	-0.00462058	0.0109027
286.85	7.77977	1.28592	-0.00473464	0.0104382
287.494	7.694994	1.28696	-0.00471574	0.0102756
288.139	7.704989	1.28669	-0.00461897	0.0106831
288.7832	7.66886	1.287802	-0.00471359	0.01034922
289.428	7.68822	1.288828	-0.0046964	0.0102739
290.072	7.67013	1.28925	-0.00471757	0.0104806
290.7168	7.84105	1.29126	-0.00472299	0.0102662
291.361	8.00194	1.29351	-0.00465043	0.010655
292.006	8.17383	1.2917	-0.004642284	0.0115005
292.65	8.13106	1.29204	-0.0046994	0.0112392
293.295	8.1399	1.29813	-0.004744729	0.0111407
293.939	8.1028	1.29459	-0.004668219	0.0114599
294.584	8.08411	1.29395	-0.00464141	0.0114305
295.229	8.08844	1.292466	-0.00476922	0.0110178
295.873	8.11341	1.29647	-0.00469108	0.0113103
296.518	8.12301	1.29775	-0.00468391	0.0115107
297.162	8.08547	1.298124	-0.00470494	0.0112398
297.807	8.06534	1.29783	-0.00469587	0.0112755
298.451	8.084691	1.29844	-0.00469721	0.0113811
299.0957	8.35915	1.29979	-0.00475117	0.01112063
299.74	8.427165	1.30159	-0.00468036	0.0118696
300.385	8.43433	1.30002	-0.00463609	0.012123
301.0293	8.39313	1.30026	-0.00470363	0.0117734
301.674	8.36419	1.30133	-0.00472161	0.0116566
302.318	8.41666	1.30338	-0.00466597	0.0120821
302.963	8.42578	1.30089	-0.00468463	0.01199074
303.607	8.63975	1.30246	-0.00476268	0.011547
304.252	8.649	1.30341	-0.004749239	0.0124344
304.896	8.57501	1.30711	-0.00468598	0.0123796
305.541	8.51566	1.3058	-0.00468435	0.0121377
306.186	8.56844	1.306941	-0.00472922	0.01213529
306.83	8.573535	1.30667	-0.00467486	0.0122438
307.475	8.59525	1.30795	-0.00471522	0.01199168
308.119	8.63135	1.30733	-0.00473173	0.0120691
308.764	8.75362	1.30875	-0.00462694	0.0126621
309.4082	8.7526	1.309214	-0.00468785	0.0124443
310.053	8.80999	1.31042	-0.00476056	0.0125681
310.697	8.814249	1.31101	-0.00464367	0.0128625
311.3418	8.85955	1.310954	-0.00462298	0.0129444
311.986	8.94952	1.309433	-0.00475562	0.0125074
312.631	9.30958	1.31277	-0.00473255	0.0136157
313.275	9.269434	1.31303	-0.00463308	0.0139368
313.92	9.31377	1.31405	-0.004698134	0.0136952
314.564	9.30007	1.31449	-0.004736851	0.0135192
315.209	9.29202	1.315132	-0.00467765	0.0137944
315.854	9.26511	1.3165	-0.00471239	0.0136836
316.498	9.26492	1.316238	-0.00472907	0.0136182
317.143	9.3983	1.31709	-0.00469157	0.0142001
317.787	9.59585	1.31821	-0.00470113	0.0143401
318.432	9.42849	1.319324	-0.00476558	0.0137129
319.076	9.42403	1.32122	-0.00463434	0.014043
319.7207	9.31761	1.3173	-0.00465543	0.0138933
320.365	9.2971	1.32068	-0.00472473	0.0135702
321.01	9.31678	1.3196	-0.00469996	0.0137829
321.6543	9.36888	1.32127	-0.00464881	0.01427627
322.299	9.94009	1.32309	-0.00468493	0.01500349
322.943	9.9287	1.32328	-0.00471425	0.0149808
323.588	9.84597	1.32368	-0.00469465	0.0149436
324.232	9.79645	1.32381	-0.00468934	0.0151211
324.877	9.83203	1.32541	-0.00474916	0.0148489
325.521	9.8182	1.32855	-0.00468213	0.0150103
326.166	10.0922	1.32758	-0.00466637	0.01562685
326.811	9.96898	1.32626	-0.00476001	0.0149975
327.455	9.9398	1.32621	-0.00471826	0.0152267
328.1	9.94947	1.32832	-0.00464218	0.0154237
328.744	9.92648	1.3277	-0.004750947	0.0150295
329.389	9.89179	1.3305	-0.00473539	0.0150593
330.0332	9.89166	1.32801	-0.00462949	0.0155679
330.678	9.90224	1.33038	-0.00475286	0.0152012
331.322	10.025	1.331849	-0.004698439	0.0152254
331.9668	10.3479	1.33332	-0.00473295	0.0162679
332.611	10.245	1.33299	-0.0047723	0.0155901
333.256	10.18941	1.333672	-0.0046869	0.015912
333.9	10.1407	1.33075	-0.00462879	0.0160443
334.545	10.1109	1.33426	-0.00477257	0.0152662
335.189	10.37368	1.33154	-0.0046842	0.0158213
335.834	10.73858	1.33592	-0.00470448	0.0168747
336.479	10.669	1.33679	-0.00475981	0.0166673
337.123	10.6165	1.33729	-0.00468527	0.01699708
337.768	10.8041	1.33771	-0.00469489	0.01702165
338.412	10.8395	1.33895	-0.00474257	0.01690614
339.057	10.8614	1.339004	-0.00468561	0.0173288
339.701	10.8334	1.34002	-0.004681156	0.0170991
340.3457	10.83028	1.33922	-0.00475465	0.0169142
340.99	10.8721	1.34222	-0.00471781	0.0174213
341.635	10.8494	1.34246	-0.00469903	0.01718202
342.2793	10.8526	1.342049	-0.0046719	0.0170817
342.924	10.9051	1.3433	-0.00464029	0.0175531
343.568	10.9148	1.34299	-0.00470398	0.0171848
344.213	10.8971	1.345536	-0.00473456	0.0172745
344.857	10.8645	1.34702	-0.00465887	0.0176283
345.502	10.8763	1.34655	-0.00466596	0.0172975
346.146	10.93	1.34633	-0.00469762	0.0173574
346.791	10.8417	1.34591	-0.00468648	0.0171227
347.436	10.9071	1.3484	-0.00471601	0.0171609
348.08	10.8858	1.34594	-0.00469827	0.01740553
348.725	10.8871	1.34901	-0.00465529	0.0175862
349.369	10.9281	1.34967	-0.00473522	0.0171483
350.014	10.9591	1.34911	-0.00473943	0.017258
350.6582	10.9546	1.35048	-0.00462693	0.0176386
351.303	10.9301	1.35244	-0.00466017	0.0173455
351.947	10.9566	1.35238	-0.004684973	0.0173039
352.5918	11.012	1.352131	-0.00469233	0.0177925
353.236	11.0738	1.3548	-0.004766	0.0174499
353.881	11.0641	1.35294	-0.00468932	0.0176832
354.525	11.0434	1.35362	-0.00461891	0.0178966
355.17	11.155	1.35333	-0.00469886	0.017806
355.814	11.2745	1.35725	-0.00470551	0.0177768
356.459	11.3007	1.35613	-0.00465518	0.0184991
357.104	11.3247	1.35734	-0.00467344	0.01833893
357.748	11.4005	1.35864	-0.00473726	0.0183271
358.393	11.4694	1.35908	-0.00468393	0.01858658
359.037	11.53876	1.35861	-0.0047015	0.01888635
359.682	11.5596	1.36019	-0.0047136	0.0187765
360.326	11.7474	1.36081	-0.00461849	0.0194034
360.9707	11.6838	1.360456	-0.00468359	0.0192291
361.615	11.6715	1.3613	-0.00469909	0.01901398
362.26	11.69747	1.36205	-0.00465235	0.01934
362.9043	11.7158	1.36511	-0.00459426	0.0194023
363.549	11.6958	1.36277	-0.00474428	0.0189698
364.193	11.6636	1.365	-0.00467043	0.0191021
364.838	11.6591	1.3629	-0.00462735	0.0194676
365.482	11.743	1.3659	-0.00459573	0.0191977
366.127	11.86382	1.36521	-0.00470242	0.0193421
366.771	12.1109	1.36175	-0.00465932	0.0201945
367.416	12.2201	1.36572	-0.00464457	0.0203884
368.061	12.2208	1.36513	-0.00467983	0.020332
368.705	12.1769	1.36875	-0.00455107	0.0206229
369.35	12.2235	1.3761	-0.00465111	0.0204451
369.994	12.21531	1.36545	-0.0047301	0.0202202
370.639	12.1968	1.36927	-0.004639579	0.0204919
371.2832	12.2044	1.36772	-0.00462182	0.0206322
371.928	12.2109	1.37146	-0.00472457	0.0202406
372.572	12.2049	1.3678	-0.00466996	0.020209
373.2168	12.2123	1.37909	-0.00465135	0.0206803
373.861	12.1636	1.37905	-0.00462402	0.0205473
374.506	12.1975	1.381099	-0.004719791	0.02015111
375.15	12.2157	1.3688	-0.00469865	0.0204713
375.795	12.19946	1.37536	-0.00458819	0.0207201
376.439	12.197	1.37404	-0.00465595	0.02041579
377.084	12.1652	1.36992	-0.00465667	0.0202887
377.729	12.1647	1.37862	-0.00466703	0.0205007
378.373	12.1803	1.37514	-0.00468224	0.0203814
379.018	12.2	1.38036	-0.00468399	0.0203855
379.662	12.2055	1.37483	-0.00464	0.020642
380.307	12.176	1.38022	-0.00469621	0.0204455
380.951	12.1729	1.38043	-0.00476279	0.0202268
381.5957	12.219	1.38131	-0.00464417	0.0204659
382.24	12.23408	1.381742	-0.00464849	0.0206159
382.885	12.2382	1.38325	-0.004694216	0.0202608
383.5293	12.225	1.38343	-0.00470901	0.0202119
384.174	12.2211	1.38392	-0.00461818	0.0206516
384.818	12.29437	1.384596	-0.00461306	0.0207978
385.463	12.3632	1.386201	-0.00472939	0.02040251
386.107	12.4132	1.38693	-0.00468966	0.020685
386.752	12.3945	1.38673	-0.00463724	0.020901
387.396	12.4439	1.3878	-0.00467662	0.0209986
388.041	12.4975	1.388	-0.00469773	0.0209351
388.686	12.5587	1.38878	-0.00464227	0.0210401
389.33	12.6136	1.38992	-0.00468005	0.0211961
389.975	12.6336	1.39035	-0.0046668	0.0212644
390.619	12.6693	1.39074	-0.00464524	0.0215465
391.264	12.7242	1.39116	-0.00465991	0.0216201
391.9082	12.7698	1.39192	-0.00470959	0.02134362
392.553	12.8198	1.39291	-0.00466694	0.0216609
393.197	12.8233	1.392742	-0.00462353	0.0221377
393.8418	12.8495	1.393659	-0.004688	0.0217658
394.486	13.0216	1.39483	-0.0047209	0.02169531
395.131	13.1094	1.39524	-0.00467838	0.0225234
395.775	13.0916	1.39631	-0.00462815	0.0223875
396.42	13.0529	1.39637	-0.00479439	0.0222838
397.064	13.1451	1.39698	-0.00467403	0.0224492
397.709	13.2236	1.39825	-0.00465589	0.02313072
398.354	13.26	1.398862	-0.00468438	0.0228611
398.998	13.282	1.39904	-0.00471467	0.0227381
399.643	13.26742	1.39961	-0.004682282	0.0229343
400.287	13.2767	1.39968	-0.00468655	0.02292446
400.932	13.34911	1.40046	-0.00471531	0.0228648
401.576	13.38833	1.40231	-0.00463057	0.0233722
402.2207	13.4284	1.40245	-0.00462918	0.0232123
402.865	13.4268	1.40265	-0.00474595	0.0230079
403.51	13.4597	1.40367	-0.00462992	0.0231978
404.1543	13.5127	1.40464	-0.00456145	0.0236458
404.799	13.5553	1.40459	-0.00468327	0.0233382
405.443	13.6098	1.40538	-0.00467295	0.023604
406.088	13.607	1.4056	-0.00467864	0.0236865
406.732	13.6455	1.40672	-0.00460724	0.0239069
407.377	13.7387	1.40754	-0.00470388	0.0237787
408.021	13.7806	1.40858	-0.00465195	0.0240901
408.666	13.8099	1.40931	-0.004657	0.0243029
409.311	13.8387	1.40906	-0.00464966	0.02398324
409.955	13.8728	1.41047	-0.0046515	0.02410496
410.6	13.9662	1.41136	-0.00462757	0.0244621
411.244	13.9923	1.41076	-0.00469098	0.0241604
411.889	14.0349	1.41199	-0.00465072	0.0246868
412.5332	14.0237	1.41264	-0.0046048	0.024942
413.178	14.0642	1.41322	-0.00467351	0.0245757
413.822	14.1047	1.41418	-0.00471121	0.0245353
414.4668	14.16973	1.41445	-0.00458802	0.0252756
415.111	14.2037	1.41546	-0.00466065	0.0250504
415.756	14.1925	1.4156	-0.004662253	0.0248011
416.4	14.2311	1.41612	-0.004681956	0.0250149
417.045	14.3102	1.41729	-0.00462308	0.0253007
417.689	14.3832	1.4182	-0.00469386	0.0252675
418.334	14.4139	1.4188	-0.00461404	0.0258189
418.979	14.4097	1.41848	-0.00464049	0.0256092
419.623	14.4413	1.41922	-0.00469726	0.0253694
420.268	14.5095	1.42003	-0.00463249	0.0257506
420.912	14.5725	1.42122	-0.004604198	0.0260691
421.557	14.6286	1.42163	-0.00468663	0.0256326
422.201	14.6043	1.42217	-0.00468353	0.0258576
422.8457	14.67099	1.42276	-0.00458756	0.0264575
423.49	14.727	1.42388	-0.00465827	0.0261624
424.135	14.7988	1.424333	-0.004659168	0.026403
424.7793	14.8426	1.42484	-0.00465099	0.0265461
425.424	14.8396	1.42477	-0.00470014	0.02632831
426.068	14.8772	1.42579	-0.0046494	0.026396
426.713	14.9491	1.42705	-0.00464003	0.0270161
427.357	14.9955	1.42777	-0.00461387	0.026775
428.002	15.0224	1.4283	-0.00468516	0.0268822
428.646	15.0245	1.42828	-0.00459612	0.0272335
429.291	15.0612	1.428689	-0.00455449	0.0273346
429.936	15.1466	1.42977	-0.00465135	0.0272239
430.58	15.1913	1.430469	-0.004651926	0.0272312
431.225	15.2292	1.43132	-0.00462763	0.0276715
431.869	15.19843	1.43128	-0.00458758	0.0274987
432.514	15.2421	1.43219	-0.00471095	0.0271723
433.1582	15.3193	1.43326	-0.00463538	0.0276809
433.803	15.3973	1.43367	-0.00455875	0.0278836
434.447	15.43047	1.4346	-0.004634	0.0279159
435.0918	15.38708	1.43461	-0.00467833	0.0278854
435.736	15.4473	1.435994	-0.004624404	0.0280649
436.381	15.52171	1.43618	-0.00464159	0.0279447
437.025	15.6086	1.43672	-0.00465418	0.0282229
437.67	15.657	1.43803	-0.00460162	0.0288105
438.314	15.6392	1.438	-0.004638039	0.0283875
438.959	15.6711	1.43922	-0.00467457	0.0284023
439.604	15.747	1.43972	-0.00465893	0.0285664
440.248	15.8164	1.43979	-0.00463169	0.0291559
440.893	15.8668	1.4411	-0.00465879	0.0289269
441.537	15.8339	1.44154	-0.00469439	0.02868926
442.182	15.8658	1.44174	-0.00461799	0.02901
442.826	15.9469	1.44294	-0.00457304	0.0294404
443.4707	16.00034	1.44402	-0.00466227	0.0291283
444.115	16.0321	1.44356	-0.004623746	0.0293766
444.76	16.022	1.44493	-0.00460774	0.0297701
445.4043	16.0734	1.44483	-0.004569537	0.029728
446.049	16.1621	1.44641	-0.00465325	0.0296002
446.693	16.2525	1.447438	-0.00467865	0.0297592
447.338	16.2665	1.44716	-0.00457081	0.0303618
447.982	16.2314	1.4471	-0.00460247	0.0299267
448.627	16.3095	1.44826	-0.004677454	0.0298627
449.271	16.3643	1.44961	-0.00460156	0.0301096
449.916	16.4168	1.4503	-0.00456519	0.0306799
450.561	16.445	1.4511	-0.004597	0.030404
451.205	16.4058	1.45072	-0.00467549	0.03019033
451.85	16.4521	1.45109	-0.00464563	0.0304879
452.494	16.55789	1.45295	-0.00462879	0.0308643
453.139	16.6507	1.453728	-0.00464869	0.0306909
453.7832	16.6849	1.45364	-0.004665236	0.0310207
454.428	16.6653	1.45376	-0.00461848	0.0310979
455.072	16.6927	1.45477	-0.0046188	0.0309043
455.7168	16.7708	1.4553	-0.00464923	0.0312546
456.361	16.85	1.45647	-0.00458991	0.03147202
457.006	16.8891	1.45689	-0.00462723	0.0313519
457.65	16.8787	1.45763	-0.00465948	0.0311038
458.295	16.9248	1.45814	-0.00462333	0.0315993
458.939	17.00205	1.45933	-0.00459179	0.0319195
459.584	17.1155	1.46037	-0.00461462	0.0319649
460.229	17.1497	1.46037	-0.00465745	0.0316874
460.873	17.1272	1.46017	-0.00459892	0.0319388
461.518	17.18347	1.46072	-0.00456785	0.0324804
462.162	17.2834	1.46326	-0.004642793	0.0325014
462.807	17.2874	1.46221	-0.00466524	0.0323261
463.451	17.3091	1.46353	-0.00462791	0.0326924
464.0957	17.2972	1.46334	-0.00461517	0.0328171
464.74	17.3456	1.46467	-0.00464918	0.0324191
465.385	17.4709	1.46486	-0.00467109	0.0326677
466.0293	17.4734	1.46552	-0.00458451	0.0330936
466.674	17.495	1.4669	-0.00461323	0.0330593
467.318	17.5057	1.46709	-0.00465153	0.0329357
467.963	17.55619	1.46757	-0.00463941	0.0330776
468.607	17.66242	1.46686	-0.00455199	0.0337379
469.252	17.6945	1.46955	-0.00458046	0.03357533
469.896	17.7393	1.470359	-0.00463004	0.0335085
470.541	17.7519	1.470196	-0.00462767	0.033762
471.186	17.8059	1.47058	-0.004587004	0.0340021
471.83	17.8394	1.47037	-0.00464128	0.0337196
472.475	17.9108	1.47256	-0.00467054	0.0339264
473.119	17.9302	1.47279	-0.00459043	0.0341765
473.764	17.9091	1.47325	-0.004639016	0.03410865
474.4082	17.9387	1.47372	-0.004595404	0.0340103
475.053	18.0154	1.47538	-0.00455525	0.0345613
475.697	18.0864	1.476276	-0.00460241	0.0344564
476.3418	18.00198	1.47531	-0.00464215	0.0342177
476.986	18.03702	1.47507	-0.00459484	0.03436628
477.631	18.0703	1.47656	-0.004541283	0.0346421
478.275	18.1397	1.4779	-0.00459044	0.0346578
478.92	18.20253	1.47896	-0.00464705	0.0344775
479.564	18.2688	1.4789	-0.004558003	0.0351619
480.209	18.2818	1.47976	-0.00453002	0.0352672
480.854	18.3442	1.47986	-0.004594815	0.0348941
481.498	18.4213	1.48124	-0.00464355	0.0351456
482.143	18.4796	1.48177	-0.00456571	0.0357941
482.787	18.5222	1.48306	-0.00455499	0.0358178
483.432	18.5204	1.482481	-0.00463755	0.0353996
484.076	18.5549	1.48391	-0.00464819	0.03548291
484.7207	18.6229	1.48448	-0.0046019	0.0361378
485.365	18.6986	1.4859	-0.00460597	0.0363865
486.01	18.7526	1.48616	-0.00462731	0.035966
486.6543	18.688	1.48645	-0.00461643	0.0360844
487.299	18.7594	1.48776	-0.00455638	0.0365279
487.943	18.7972	1.48731	-0.00453233	0.0366
488.588	18.90563	1.48902	-0.00467257	0.0362191
489.232	18.9311	1.48954	-0.00462509	0.0367921
489.877	18.90707	1.48948	-0.0045331	0.0371324
490.521	18.9486	1.490598	-0.00456509	0.03693692
491.166	19.0329	1.48975	-0.0046387	0.0368525
491.811	19.109	1.49154	-0.00460942	0.0373912
492.455	19.5752	1.49427	-0.00454148	0.0386084
493.1	19.5842	1.49399	-0.00456637	0.0383513
493.744	19.7374	1.49476	-0.00461469	0.0384634
494.389	19.8727	1.49584	-0.00458657	0.0390236
495.0332	19.6745	1.495002	-0.004587987	0.0387961
495.678	19.8152	1.496439	-0.004561618	0.0392023
496.322	19.7542	1.491379	-0.00459095	0.0389088
496.9668	19.7957	1.49518	-0.00458354	0.0393591
497.611	19.8751	1.50016	-0.00459277	0.0388824
498.256	19.9007	1.50443	-0.00460479	0.0398315
498.9	19.988	1.49637	-0.00459691	0.0400529
499.545	19.9694	1.4963	-0.00461677	0.0396074
500.189	20.02441	1.50257	-0.00465808	0.0393454
500.834	20.0576	1.50247	-0.004615319	0.0398427
501.479	20.0462	1.50294	-0.00451691	0.0401054
502.123	20.0717	1.49991	-0.00463685	0.0398287
502.768	19.99065	1.50089	-0.00466678	0.0396591
503.412	20.0427	1.503215	-0.00460038	0.0400493
504.057	20.07	1.49353	-0.00458996	0.03978458
504.701	20.0647	1.50529	-0.00468193	0.0399821
505.3457	20.1011	1.50436	-0.00465954	0.0400238
505.99	20.0743	1.50488	-0.00457544	0.0404957
506.635	20.1018	1.50851	-0.00458661	0.0402577
507.2793	20.06673	1.50365	-0.00468713	0.039923
507.924	20.0768	1.50678	-0.00462746	0.0401949
508.568	20.6717	1.510975	-0.00461981	0.041568
509.213	20.1566	1.50658	-0.00465562	0.040778
509.857	20.6304	1.51379	-0.00467171	0.0417169
510.502	20.6331	1.50653	-0.00463467	0.0415072
511.146	20.698	1.50857	-0.00467611	0.0415419
511.791	20.7487	1.511469	-0.00464777	0.0419215
512.436	20.73959	1.51476	-0.00457614	0.0422328
513.08	20.786	1.51438	-0.00461604	0.0419466
513.725	20.6942	1.51364	-0.00467696	0.0415002
514.369	20.7335	1.50995	-0.00458702	0.0417577
515.014	20.9049	1.51393	-0.00462068	0.0428524
515.6582	20.9151	1.51771	-0.00467667	0.0424228
516.303	20.9571	1.51841	-0.004720218	0.042439
516.947	20.7928	1.51571	-0.00461386	0.0422572
517.5918	21.0256	1.51538	-0.00456683	0.043046
518.236	21.0579	1.51768	-0.00464952	0.0426568
518.881	21.0538	1.52201	-0.00463017	0.0428937
519.525	21.082	1.52161	-0.00457375	0.0435054
520.17	21.2159	1.51842	-0.004651	0.0429351
520.814	21.2911	1.51923	-0.00466084	0.043365
521.459	21.3197	1.52277	-0.00463101	0.0438534
522.104	21.3328	1.52546	-0.00462238	0.0438565
522.748	21.3626	1.52125	-0.004636683	0.0441132
523.393	21.193	1.51931	-0.00462024	0.04361302
524.037	21.4008	1.52402	-0.00461331	0.0441998
524.682	21.4706	1.52311	-0.004674959	0.0442433
525.326	21.4491	1.52594	-0.00463619	0.0443743
525.9707	21.492	1.526992	-0.004588847	0.0446898
526.615	21.3158	1.52267	-0.00463541	0.0441407
527.26	21.48711	1.52684	-0.00464192	0.0442817
527.9043	21.6254	1.52405	-0.00458437	0.0450577
528.549	21.61396	1.53086	-0.00458058	0.0452538
529.193	21.6137	1.53067	-0.00466286	0.0449504
529.838	21.40106	1.52671	-0.00463004	0.04484798
530.482	21.6236	1.52754	-0.00460631	0.04516818
531.127	21.6693	1.52986	-0.00457618	0.0455719
531.771	21.7056	1.53292	-0.00460695	0.0451282
532.416	21.6648	1.53355	-0.00461934	0.0451574
533.061	21.2269	1.53205	-0.00453837	0.0480438
533.705	21.8691	1.53183	-0.00455045	0.0479822
534.35	21.906	1.53164	-0.00463268	0.0475982
534.994	21.9137	1.53343	-0.00461426	0.0480161
535.639	21.9272	1.53769	-0.00456811	0.0484108
536.2832	21.9716	1.53564	-0.004603948	0.0479127
536.928	21.9828	1.53748	-0.004621089	0.0478231
537.572	21.9791	1.53289	-0.00466454	0.0480927
538.2168	21.9614	1.5375	-0.00457606	0.04848836
538.861	21.9736	1.53897	-0.00456736	0.0481715
539.506	21.9603	1.5369	-0.0046576	0.04789
540.15	22.0516	1.54063	-0.00464074	0.0481289
540.795	22.1364	1.5414	-0.00458539	0.0487235
541.439	22.1988	1.53984	-0.00459776	0.0487849
542.084	22.2489	1.53934	-0.00465875	0.0485565
542.729	22.031	1.5413	-0.00462581	0.0484697
543.373	22.7112	1.54375	-0.004612491	0.0498836
544.018	23.3269	1.540989	-0.00461323	0.0519954
544.662	23.3882	1.54666	-0.00461456	0.0543378
545.307	23.20437	1.54422	-0.00457562	0.0545492
545.951	23.1896	1.54833	-0.00460944	0.0548352
546.5957	23.1879	1.54881	-0.0046684	0.0546719
547.24	23.175	1.54887	-0.00465116	0.05483
547.885	23.2303	1.54947	-0.00460887	0.0551421
548.5293	23.1865	1.54801	-0.00466669	0.0549765
549.174	23.1874	1.5499	-0.0046632	0.055055
549.818	23.1922	1.55013	-0.004572249	0.055303
550.463	23.7135	1.55156	-0.00458391	0.0570727
551.107	23.41683	1.55054	-0.00465343	0.0567147
551.752	23.1584	1.55092	-0.00462894	0.05630891
552.396	23.2291	1.5523	-0.0045424	0.05658
553.041	23.3723	1.55431	-0.00460467	0.0569676
553.686	23.3505	1.551653	-0.0046484	0.0567721
554.33	23.4004	1.55437	-0.00459425	0.0569962
554.975	23.3741	1.55517	-0.00454127	0.057164
555.619	23.4405	1.55562	-0.00460623	0.05713895
556.264	23.5182	1.55644	-0.00465403	0.0570492
556.9082	23.5477	1.55694	-0.00453784	0.0577514
557.553	23.8419	1.55771	-0.00455907	0.058089
558.197	23.8968	1.55745	-0.00460525	0.0592804
558.8418	23.8682	1.56141	-0.004598998	0.0596679
559.486	23.8614	1.56113	-0.00450041	0.0603566
560.131	23.8521	1.5583	-0.00450741	0.0605484
560.775	23.8197	1.56278	-0.00466621	0.06014641
561.42	23.8583	1.55996	-0.00459524	0.0606894
562.064	23.8516	1.557815	-0.00452626	0.06101682
562.709	23.8593	1.56115	-0.00457698	0.061105
563.354	23.8615	1.56339	-0.00466244	0.0608655
563.998	23.8398	1.56412	-0.00455487	0.0611182
564.643	23.7954	1.564052	-0.004564	0.0611971
565.287	23.9095	1.56547	-0.00457033	0.0613088
565.932	24.0527	1.56632	-0.00459905	0.0619048
566.576	24.1628	1.56713	-0.00455716	0.0625047
567.2207	24.0943	1.56755	-0.00458964	0.06295152
567.865	24.0034	1.56466	-0.00458655	0.0629287
568.51	23.9968	1.56869	-0.00456455	0.0631365
569.1543	24.20023	1.56882	-0.00459443	0.0634151
569.799	24.2502	1.57138	-0.00465056	0.0641309
570.443	24.1473	1.57072	-0.00459671	0.0643323
571.088	24.0785	1.57065	-0.00450851	0.0645066
571.732	24.12953	1.57098	-0.00461329	0.0643702
572.377	24.2542	1.57236	-0.00467432	0.06484367
573.021	24.2589	1.57356	-0.00460575	0.0654602
573.666	24.2438	1.57342	-0.00456293	0.0655574
574.311	24.22773	1.57469	-0.00462114	0.0656501
574.955	24.29376	1.57462	-0.00459915	0.0659044
575.6	24.5714	1.576861	-0.00453243	0.0676669
576.244	24.5915	1.57956	-0.00449954	0.0692792
576.889	24.4181	1.57613	-0.00460626	0.0689047
577.5332	24.3636	1.57493	-0.00458526	0.0689626
578.178	24.34433	1.577231	-0.004523519	0.0693264
578.822	24.4043	1.57837	-0.00456342	0.0695354
579.4668	24.4865	1.57931	-0.00463235	0.06968049
580.111	24.4873	1.58022	-0.00457071	0.0702905
580.756	24.4631	1.58013	-0.00450845	0.0703499
581.4	24.5043	1.58083	-0.00457676	0.0705992
582.045	24.5834	1.58096	-0.00456644	0.0711101
582.689	24.6189	1.582708	-0.0045044	0.07150127
583.334	24.6269	1.58292	-0.00458528	0.07172709
583.979	24.5998	1.58368	-0.004560133	0.072131
584.623	24.6421	1.58475	-0.00450059	0.0727879
585.268	24.7166	1.58593	-0.00451867	0.0730789
585.912	25.01964	1.58664	-0.004548484	0.0745087
586.557	24.9253	1.58833	-0.00449085	0.0758484
587.201	24.8164	1.5851	-0.00446857	0.0762632
587.8457	24.7846	1.58446	-0.00450762	0.0763707
588.49	24.7838	1.589231	-0.00452382	0.0764501
589.135	24.7927	1.589348	-0.00447267	0.077222
589.7793	24.7734	1.589292	-0.0044675	0.0776045
590.424	24.9539	1.59141	-0.00447703	0.0776997
591.068	25.0301	1.59022	-0.00448954	0.0786959
591.713	25.0159	1.59345	-0.00444584	0.0795213
592.357	25.1072	1.59253	-0.00444082	0.080459
593.002	25.1259	1.60053	-0.00454361	0.08081273
593.646	25.1754	1.60787	-0.00447739	0.0820398
594.291	25.4339	1.61489	-0.00431822	0.08447428
594.936	25.5927	1.61711	-0.00434325	0.0870981
595.58	25.7185	1.62087	-0.00438408	0.0910055
596.225	25.62571	1.626055	-0.00428915	0.097814
596.869	25.8251	1.632311	-0.00416764	0.101502
597.514	25.0211	1.63547	-0.00422085	0.116029
598.1582	26.2336	1.64957	-0.00425055	0.119413
598.803	26.0979	1.64622	-0.00420985	0.120892
599.447	26.2681	1.65293	-0.00419191	0.12202
600.0918	26.4052	1.65555	-0.004243196	0.122637
600.736	26.9806	1.66402	-0.00425802	0.140554
601.381	26.9525	1.6679	-0.00425479	0.144088
602.025	26.8337	1.6726	-0.00425597	0.145312
602.67	26.7849	1.6816	-0.00424401	0.145814
603.314	26.7577	1.68264	-0.00421222	0.146531
603.959	27.2364	1.69025	-0.00426366	0.150191
604.604	27.4135	1.6922	-0.00423472	0.156128
605.248	27.3684	1.70107	-0.0042659	0.162272
605.893	27.6002	1.70707	-0.00416801	0.167368
606.537	27.5376	1.7117	-0.00420591	0.174625
607.182	27.445	1.7203	-0.00426493	0.178322
607.826	27.3833	1.72028	-0.00423014	0.18025
608.4707	27.4645	1.72598	-0.00417476	0.182336
609.115	27.9958	1.73076	-0.00421648	0.1952922
609.76	27.4573	1.739334	-0.00427194	0.202924
610.4043	27.5868	1.74035	-0.00421199	0.206007
611.049	27.6407	1.751201	-0.00418556	0.208908
611.693	27.6627	1.750607	-0.00427019	0.210735
612.338	27.8004	1.75912	-0.00427036	0.2161202
612.982	27.8524	1.75985	-0.0042008	0.221335
613.627	28.0393	1.77007	-0.00415435	0.23547
614.271	27.8702	1.76753	-0.00431992	0.242464
614.916	27.6287	1.773	-0.00424608	0.247469
615.561	27.6247	1.780341	-0.00418757	0.252818
616.205	27.6566	1.78638	-0.00422899	0.254611
616.85	27.8441	1.79136	-0.00429058	0.258104
617.494	27.8447	1.80198	-0.00427149	0.266265
618.139	27.9872	1.80111	-0.00424879	0.274529
618.7832	27.7344	1.80431	-0.00421523	0.285526
619.428	27.9047	1.81797	-0.00429905	0.289617
620.072	27.8749	1.81681	-0.00424104	0.2950024
620.7168	27.52891	1.81624	-0.004237439	0.301503
621.361	27.4682	1.81948	-0.00427582	0.304072
622.006	27.9234	1.834227	-0.00425638	0.306619
622.65	27.5601	1.84463	-0.00423869	0.31495
623.295	27.4003	1.85048	-0.00424232	0.318304
623.939	27.6671	1.84797	-0.00425103	0.324866
624.584	27.7209	1.8579	-0.00419688	0.335532
625.229	27.4089	1.858292	-0.0042374	0.343175
625.873	27.5509	1.86398	-0.00428493	0.34741
626.518	27.5368	1.86934	-0.00421932	0.353997
627.162	27.5314	1.87441	-0.00418826	0.36048
627.807	27.5017	1.87812	-0.00423996	0.367967
628.451	27.35763	1.88434	-0.00426206	0.376319
629.0957	27.1383	1.89143	-0.00421468	0.380972
629.74	27.2954	1.902428	-0.00420621	0.384732
630.385	27.1867	1.90457	-0.00429699	0.388831
631.0293	27.1	1.90593	-0.0042448	0.400322
631.674	27.1598	1.91118	-0.00423711	0.405286
632.318	27.09449	1.91585	-0.0042144	0.410259
632.963	27.0981	1.92112	-0.004225113	0.416262
633.607	26.9314	1.92626	-0.00421229	0.425383
634.252	26.8282	1.93063	-0.00428607	0.436365
634.896	26.7173	1.93636	-0.00418403	0.439646
635.541	26.8135	1.94153	-0.00416708	0.443463
636.186	26.9055	1.94686	-0.00423689	0.452568
636.83	26.6099	1.9509	-0.004257075	0.461108
637.475	26.5388	1.95585	-0.00422877	0.466077
638.119	26.5416	1.96218	-0.00422482	0.471724
638.764	26.6471	1.96778	-0.004293025	0.475887
639.4082	26.737	1.97217	-0.00424277	0.482654
640.053	26.3668	1.98014	-0.00416594	0.494319
640.697	26.1945	1.98644	-0.00425607	0.499935
641.3418	26.4203	1.98608	-0.00419167	0.504732
641.986	26.1614	1.9963	-0.00418867	0.51318
642.631	26.1528	1.99671	-0.00427819	0.51895
643.275	26.154	2.00353	-0.00420635	0.525935
643.92	25.8293	2.00869	-0.00421553	0.5309605
644.564	25.94812	2.01414	-0.00427972	0.534955
645.209	25.8719	2.02703	-0.00431011	0.541209
645.854	25.9905	2.026722	-0.004204961	0.547023
646.498	25.6652	2.02903	-0.00423418	0.556956
647.143	25.6508	2.03096	-0.00427526	0.562329
647.787	25.5739	2.040293	-0.00423924	0.569302
648.432	25.6793	2.04335	-0.00416941	0.573398
649.076	25.4962	2.04776	-0.00427969	0.580766
649.7207	25.2922	2.05408	-0.00422323	0.58815
650.365	25.2676	2.06025	-0.00424302	0.595593
651.01	25.3806	2.06543	-0.00425879	0.600606
651.6543	25.0484	2.06958	-0.00423681	0.60862
652.299	25.1719	2.0758	-0.00418712	0.613699
652.943	25.0673	2.08005	-0.00424613	0.622542
653.588	24.915	2.08862	-0.0042695	0.629553
654.232	24.7927	2.09109	-0.00421865	0.633158
654.877	24.705	2.09558	-0.00414877	0.635518
655.521	24.7475	2.10075	-0.00423686	0.63739
656.166	24.7845	2.110533	-0.0042526	0.645702
656.811	24.6214	2.11402	-0.00427561	0.650945
657.455	24.6399	2.11734	-0.004165655	0.657493
658.1	24.2903	2.1227	-0.00428699	0.678647
658.744	24.2295	2.126054	-0.00424916	0.6844452
659.389	24.2347	2.13252	-0.00421083	0.689375
660.0332	24.236	2.13616	-0.00416751	0.696362
660.678	24.09409	2.14298	-0.0042592	0.706165
661.322	23.8753	2.146	-0.00426965	0.710437
661.9668	23.99892	2.1529	-0.00418373	0.714831
662.611	23.9593	2.15865	-0.00417118	0.722515
663.256	23.9529	2.16392	-0.0042839	0.729209
663.9	23.6448	2.167043	-0.00423048	0.736819
664.545	23.6006	2.173291	-0.00422684	0.7428425
665.189	23.6003	2.1785	-0.00421139	0.751096
665.834	23.3731	2.18407	-0.00422413	0.762026
666.479	23.2139	2.18983	-0.00414083	0.766163
667.123	23.2951	2.19397	-0.00424786	0.770013
667.768	23.2045	2.19898	-0.00423229	0.7766614
668.412	23.1332	2.2051	-0.0042102	0.783904
669.057	23.005	2.20924	-0.00419741	0.791236
669.701	22.841	2.21505	-0.00421015	0.798821
670.3457	22.44833	2.21972	-0.00418279	0.809004
670.99	21.4254	2.223165	-0.00418737	0.819068
671.635	17.6432	2.22805	-0.00421411	0.8819235
672.2793	15.8418	2.23712	-0.00429667	0.904286
672.924	13.9696	2.24167	-0.00418196	0.946054
673.568	12.723	2.24392	-0.00411091	0.966068
674.213	11.0599	2.25568	-0.00424251	0.991648
674.857	3.32868	2.26352	-0.004255712	1.06874
675.502	1.58809	2.263159	-0.00420154	1.16548
676.146	0.796198	2.26367	-0.00414598	1.22564
676.791	0.0102592	2.27441	-0.00424502	3.20766
677.436	0.0103816	2.27594	-0.00428707	3.23274
678.08	0.00745828	2.28039	-0.00415997	3.24872
678.725	0.00114308	2.286819	-0.00416999	3.25866
679.369	-0.00142935	2.29234	-0.0042632	3.26619
680.014	0.00106552	2.2942	-0.00419018	3.27493
680.6582	0.00681107	2.30797	-0.004168414	3.28134
681.303	0.00979549	2.309027	-0.00424444	3.29152
681.947	0.00776738	2.31163	-0.00427804	3.29907
682.5918	0.00282899	2.31803	-0.00417683	3.30341
683.134	0.0109011	2.31822	-0.00424424	3.30922