File: shares/flx_lsms_hydrogen/EXPERIMENTAL_DATA/LABO_SOETE/WP1_TENSILE/AIR/MTS/HYARR1/specimen.dat
MTS793|MPT|ENU|1|2|.|/|:|1|0|0|A

Data Acquisition						Time:	15.0205	s	12/17/2021 2:15:41 PM
Time	ESH B Force	ESH B Displacement	Analog In 2	Analog In 1
s	kN	mm	V	V
0.0332031	0.193679	2.28976	-0.00441024	-0.01230312
0.72168	0.194882	2.28951	-0.00446479	-0.0125919
1.41016	0.182963	2.28907	-0.00437737	-0.0123603
2.09863	0.1916474	2.29031	-0.00438641	-0.0125771
2.78711	0.2125524	2.29134	-0.00443482	-0.0123223
3.47559	0.218997	2.29288	-0.0044676	-0.0126659
4.16406	0.217759	2.29447	-0.00440714	-0.0124799
4.85254	0.1984624	2.29315	-0.00436657	-0.0121908
5.54102	0.205793	2.29326	-0.00446895	-0.0124837
6.22949	0.224814	2.29411	-0.004422213	-0.0124302
6.91797	0.238297	2.29703	-0.00443694	-0.0124765
7.60645	0.24146	2.30039	-0.00439814	-0.0121195
8.29492	0.244005	2.29877	-0.00439507	-0.0122744
8.9834	0.229756	2.29777	-0.00446639	-0.012608
9.671875	0.203492	2.29779	-0.004439543	-0.0123525
10.3604	0.242837	2.29555	-0.00443206	-0.0123245
11.0488	0.247911	2.301513	-0.0044553	-0.0122376
11.7373	0.2448629	2.3016	-0.00449237	-0.0126426
12.4258	0.247747	2.30342	-0.00450636	-0.0125823
13.1143	0.237537	2.30132	-0.004451314	-0.0122277
13.8027	0.241261	2.30117	-0.00443862	-0.0123476
14.4912	0.256426	2.30275	-0.00441572	-0.0124469
15.1797	0.259116	2.30437	-0.00444535	-0.012599
15.8682	0.269709	2.30532	-0.00443367	-0.0122944
16.5566	0.284532	2.30644	-0.00442583	-0.0121952
17.2451	0.246173	2.30555	-0.00448272	-0.0125614
17.9336	0.2494555	2.3052	-0.00448089	-0.0124873
18.62207	0.280014	2.30775	-0.00448644	-0.01241739
19.3105	0.284923	2.309	-0.00438401	-0.0121285
19.999	0.284983	2.30894	-0.00446564	-0.0124639
20.6875	0.286799	2.31062	-0.00452161	-0.0126475
21.376	0.27401	2.30908	-0.00441632	-0.0122601
22.0645	0.280551	2.30987	-0.00448121	-0.0123378
22.75293	0.303251	2.30788	-0.004465749	-0.0124327
23.4414	0.290628	2.313122	-0.00448231	-0.0126526
24.1299	0.296258	2.31417	-0.00445732	-0.0122832
24.8184	0.302744	2.31511	-0.00440253	-0.0122321
25.5068	0.281097	2.31415	-0.00452441	-0.0126338
26.1953	0.304016	2.31006	-0.004442201	-0.0123971
26.8838	0.314482	2.316201	-0.00445529	-0.01238106
27.5723	0.3213003	2.31705	-0.00446238	-0.0123311
28.2607	0.3468	2.31713	-0.00452023	-0.0127249
28.9492	0.347787	2.31674	-0.00447739	-0.0124149
29.6377	0.323557	2.31776	-0.00439588	-0.0121788
30.3262	0.323239	2.31687	-0.00450123	-0.0126228
31.0146	0.339504	2.32171	-0.0044323	-0.0124017
31.7031	0.3433699	2.32068	-0.00444979	-0.0123636
32.3916	0.342439	2.321979	-0.00445709	-0.0123567
33.0801	0.364607	2.32047	-0.00453555	-0.0126772
33.7686	0.320186	2.3221	-0.00443639	-0.0123431
34.457	0.332895	2.32171	-0.00441233	-0.012207
35.1455	0.362799	2.32481	-0.004536151	-0.0123593
35.834	0.359134	2.32527	-0.00442527	-0.01209189
36.5225	0.368554	2.32597	-0.00444413	-0.0123563
37.2109	0.380993	2.325758	-0.00451002	-0.01211712
37.8994	0.3433392	2.32551	-0.004490213	-0.0126457
38.5879	0.349432	2.32601	-0.00443585	-0.0119243
39.2764	0.38944	2.328002	-0.00442373	-0.0119339
39.9648	0.401203	2.32881	-0.00451284	-0.0122659
40.65332	0.401765	2.33055	-0.00443411	-0.0120665
41.3418	0.391154	2.33074	-0.004458834	-0.0120115
42.0303	0.376376	2.32886	-0.00445888	-0.01213697
42.71875	0.395257	2.33011	-0.00447885	-0.0122783
43.4072	0.426511	2.33407	-0.00440006	-0.0118717
44.0957	0.410378	2.33349	-0.00438991	-0.0119684
44.78418	0.437016	2.33458	-0.0044795	-0.0123219
45.4727	0.482107	2.33363	-0.0044173	-0.012046
46.1611	0.427891	2.33324	-0.004426857	-0.0120156
46.8496	0.4346714	2.3378	-0.0045171	-0.0121202
47.5381	0.441787	2.33637	-0.00446014	-0.0122761
48.2266	0.4368048	2.33808	-0.00442703	-0.0118352
48.915	0.417798	2.33847	-0.00443295	-0.0119909
49.6035	0.436341	2.338717	-0.00447002	-0.0122647
50.292	0.43499	2.33835	-0.00446015	-0.0120233
50.9805	0.43063	2.33832	-0.00441529	-0.0120139
51.6689	0.483167	2.34085	-0.00449919	-0.0121173
52.3574	0.477772	2.339977	-0.00454889	-0.0123209
53.0459	0.485364	2.33933	-0.00443179	-0.01184025
53.7344	0.477548	2.34136	-0.00440078	-0.0119266
54.4229	0.467091	2.34408	-0.00450892	-0.0122861
55.1113	0.451832	2.34413	-0.00444019	-0.0120524
55.7998	0.466557	2.34641	-0.004449348	-0.0120338
56.4883	0.44681	2.347131	-0.0044579	-0.0120189
57.1768	0.462425	2.34577	-0.00451146	-0.0123537
57.8652	0.4879424	2.34133	-0.00445709	-0.0121661
58.5537	0.486905	2.34338	-0.00438831	-0.0119012
59.2422	0.420073	2.34296	-0.00450356	-0.0121867
59.9307	0.473709	2.34956	-0.00445829	-0.01213591
60.6191	0.507173	2.34919	-0.0044704	-0.0121343
61.3076	0.476614	2.34985	-0.00438008	-0.011868
61.9961	0.470619	2.35404	-0.0044275	-0.012032
62.68457	0.442768	2.35046	-0.00447558	-0.0123035
63.373	0.4600206	2.35136	-0.00442234	-0.0120832
64.0615	0.483836	2.35501	-0.004434749	-0.01204935
64.75	0.476872	2.35181	-0.00445407	-0.0119474
65.4385	0.516589	2.3567	-0.00448585	-0.012367
66.127	0.505338	2.35553	-0.00448181	-0.0122744
66.81543	0.44495	2.35431	-0.004439658	-0.0119026
67.5039	0.471082	2.35523	-0.00443221	-0.0120797
68.1924	0.546316	2.35787	-0.00446809	-0.0118337
68.8809	0.537267	2.35736	-0.004484063	-0.0122516
69.5693	0.536203	2.35633	-0.00441467	-0.0115769
70.2578	0.5614292	2.36275	-0.00442739	-0.0115868
70.9463	0.528392	2.35633	-0.00448753	-0.0123014
71.6348	0.524197	2.35803	-0.00442463	-0.012131
72.3232	0.550693	2.36237	-0.0044412	-0.0117409
73.0117	0.586843	2.36059	-0.00443262	-0.0116349
73.7002	0.598307	2.36316	-0.004514467	-0.0120133
74.3887	0.57067	2.36428	-0.00445256	-0.0119222
75.0771	0.546982	2.36314	-0.00439261	-0.0115505
75.7656	0.5707522	2.36417	-0.00445925	-0.01184647
76.4541	0.608363	2.36612	-0.00450269	-0.01187211
77.1426	0.5994125	2.36562	-0.00444086	-0.0118357
77.8311	0.626721	2.36887	-0.004390358	-0.0115244
78.5195	0.628972	2.36708	-0.00445515	-0.0118399
79.208	0.585188	2.36668	-0.00451374	-0.0119642
79.8965	0.588166	2.36793	-0.00442161	-0.01161
80.585	0.649044	2.36949	-0.00449561	-0.0117457
81.2734	0.672247	2.37104	-0.00450573	-0.0118583
81.9619	0.6578536	2.37193	-0.00449949	-0.01191619
82.6504	0.652821	2.37138	-0.00437187	-0.0115187
83.3389	0.636223	2.37042	-0.004496824	-0.0118384
84.0273	0.654335	2.37105	-0.004526082	-0.0120117
84.71582	0.688717	2.374141	-0.00440695	-0.0116204
85.4043	0.699219	2.37461	-0.00445553	-0.0118036
86.0928	0.726224	2.375386	-0.00448643	-0.0118387
86.78125	0.721998	2.37565	-0.00445756	-0.0118489
87.4697	0.649499	2.37495	-0.00442477	-0.0115567
88.1582	0.694862	2.37574	-0.00448794	-0.0119171
88.84668	0.775397	2.37744	-0.004515192	-0.0116723
89.5352	0.786438	2.37975	-0.00441467	-0.0112904
90.2236	0.762433	2.38083	-0.00448706	-0.0115174
90.9121	0.798666	2.37905	-0.0044931	-0.0115393
91.6006	0.7500518	2.37922	-0.00452568	-0.01148851
92.2891	0.750226	2.38051	-0.00440181	-0.0112764
92.9775	0.795136	2.38204	-0.00450927	-0.011737
93.666	0.847438	2.38388	-0.0045187	-0.0115439
94.3545	0.852637	2.38401	-0.00440995	-0.011274
95.043	0.834852	2.38498	-0.00451436	-0.0116
95.7314	0.774772	2.38042	-0.00442802	-0.0114739
96.4199	0.835924	2.38382	-0.00445483	-0.0114068
97.1084	0.899602	2.38699	-0.00442511	-0.0112779
97.7969	0.901816	2.38654	-0.00451429	-0.0117243
98.4854	0.917523	2.38862	-0.00442106	-0.0116077
99.1738	0.927546	2.38843	-0.00439887	-0.0112517
99.8623	0.849767	2.387	-0.00443666	-0.0116108
100.551	0.889627	2.38838	-0.00444125	-0.0115241
101.239	0.981888	2.39058	-0.00442687	-0.0113916
101.928	1.01692	2.39185	-0.004427772	-0.011353
102.616	0.908745	2.39536	-0.00447803	-0.0117495
103.305	0.866546	2.39151	-0.00442808	-0.0115265
103.993	0.807707	2.39209	-0.00437713	-0.0112494
104.682	0.854425	2.39299	-0.00446746	-0.011635
105.37	0.910245	2.39521	-0.00445557	-0.0115037
106.059	0.924144	2.395	-0.00445076	-0.0114539
106.747	0.973006	2.39666	-0.00445017	-0.0113254
107.436	0.958088	2.39645	-0.00449291	-0.0117198
108.124	0.879391	2.39522	-0.00446802	-0.0114087
108.8125	0.947917	2.39675	-0.00444694	-0.011245
109.501	1.07834	2.39809	-0.00451889	-0.0113368
110.189	1.0837	2.39995	-0.00440326	-0.0112268
110.878	1.195662	2.40044	-0.00444449	-0.0107858
111.566	1.14955	2.39649	-0.00444752	-0.0110594
112.255	1.03449	2.399	-0.00449643	-0.0117519
112.943	1.08403	2.40077	-0.00445317	-0.0112568
113.632	1.1776	2.40053	-0.00437967	-0.0109263
114.32	1.27445	2.40153	-0.004417269	-0.0112727
115.009	1.25909	2.40777	-0.00443981	-0.0112124
115.697	1.191053	2.40303	-0.00441264	-0.0111547
116.386	1.16397	2.40559	-0.00443365	-0.01094394
117.074	1.18578	2.40508	-0.00445663	-0.0113141
117.7627	1.22735	2.408134	-0.00449274	-0.01135999
118.451	1.22139	2.40761	-0.00439599	-0.0110008
119.14	1.29022	2.39944	-0.004429664	-0.0110871
119.828	1.344763	2.41179	-0.00446272	-0.0108768
120.5166	1.26401	2.4085	-0.00446209	-0.0110105
121.205	1.26013	2.40814	-0.00442759	-0.0106816
121.894	1.32593	2.41118	-0.0044212	-0.0106089
122.582	1.36533	2.4115	-0.00447737	-0.0110315
123.271	1.59758	2.40896	-0.00446033	-0.0105794
123.959	1.48659	2.41297	-0.00443636	-0.01052259
124.647	1.42067	2.41321	-0.00441732	-0.0106198
125.336	1.357354	2.41493	-0.00446881	-0.01092796
126.024	1.394248	2.41491	-0.00453775	-0.0110348
126.713	1.45888	2.41195	-0.00443389	-0.0104093
127.401	1.48391	2.41675	-0.00448374	-0.0108263
128.09	1.45655	2.41743	-0.00445977	-0.0105118
128.778	1.41859	2.4173	-0.00451852	-0.0108041
129.4668	1.46066	2.41628	-0.00446865	-0.0105826
130.155	1.640996	2.42185	-0.00446701	-0.0104051
130.844	1.60914	2.42103	-0.00451973	-0.0106309
131.532	1.62952	2.41612	-0.00444322	-0.0106212
132.2207	1.61546	2.42194	-0.00449289	-0.0106014
132.909	1.59049	2.41983	-0.00442852	-0.0102695
133.598	1.60422	2.4212	-0.00442326	-0.0104814
134.286	1.68244	2.424	-0.00448843	-0.0104457
134.975	1.70423	2.42443	-0.00444697	-0.0102322
135.663	1.73276	2.42525	-0.00442328	-0.0101937
136.352	1.67479	2.42574	-0.00445675	-0.0102244
137.04	1.62622	2.42379	-0.00449517	-0.0108284
137.729	1.72017	2.4257	-0.00444059	-0.0102844
138.417	1.84614	2.42598	-0.00442309	-0.0100782
139.105	1.74551	2.42881	-0.004465491	-0.0103533
139.794	1.80077	2.42917	-0.00447289	-0.0103158
140.482	1.78633	2.42961	-0.00441438	-0.01026
141.1709	1.71012	2.42795	-0.004397593	-0.0099941
141.859	1.77351	2.42924	-0.00448342	-0.0103916
142.548	1.87366	2.43201	-0.00447755	-0.0104353
143.236	2.00376	2.43377	-0.004412997	-0.00977308
143.9248	1.93947	2.43404	-0.00442985	-0.00996994
144.613	1.89653	2.43394	-0.00442625	-0.0100539
145.302	1.83079	2.43196	-0.00450518	-0.0103255
145.99	1.95371	2.43144	-0.00440738	-0.00971591
146.679	2.03	2.43737	-0.00444849	-0.00993696
147.367	2.01715	2.43638	-0.0044946	-0.010172
148.056	2.0848	2.43843	-0.004381666	-0.00948869
148.744	2.00544	2.43633	-0.00447509	-0.00987656
149.433	1.95476	2.436204	-0.00452249	-0.00996297
150.121	2.0497	2.43818	-0.00447748	-0.0102055
150.81	2.13897	2.44054	-0.00444241	-0.00951679
151.498	2.14537	2.44113	-0.00440278	-0.00943577
152.187	2.166605	2.44251	-0.00448456	-0.00982437
152.875	2.12136	2.44151	-0.004455307	-0.00969436
153.563	2.0799	2.43998	-0.00442994	-0.0096316
154.252	2.14348	2.44181	-0.00445216	-0.0094608
154.94	2.22232	2.44388	-0.00447153	-0.009811773
155.629	2.29997	2.445842	-0.00452727	-0.0095753
156.317	2.29536	2.44584	-0.00443739	-0.009164338
157.006	2.34635	2.44506	-0.00443628	-0.00930597
157.694	2.16006	2.4442	-0.00444196	-0.00966688
158.383	2.291388	2.44703	-0.00444907	-0.00984693
159.071	2.39313	2.44948	-0.00443382	-0.00920252
159.76	2.36443	2.44992	-0.00443592	-0.00914868
160.448	2.41447	2.449295	-0.00448566	-0.00951174
161.137	2.35051	2.44998	-0.00449596	-0.00939267
161.8252	2.32243	2.44982	-0.00447973	-0.00930416
162.514	2.39755	2.45113	-0.004414144	-0.0091551
163.202	2.494416	2.45297	-0.00450098	-0.00922257
163.891	2.54867	2.45402	-0.00449371	-0.00917351
164.5791	2.56951	2.45487	-0.00441678	-0.00877966
165.268	2.43117	2.453151	-0.00447519	-0.00903075
165.956	2.41462	2.453	-0.00449671	-0.00939077
166.645	2.55711	2.45488	-0.004507028	-0.00912165
167.333	2.61616	2.45603	-0.0044175	-0.00846247
168.021	2.62695	2.45734	-0.00444106	-0.0086817
168.71	2.70881	2.45818	-0.00450586	-0.00895068
169.398	2.982136	2.461319	-0.00443172	-0.007966063
170.087	2.64542	2.4571	-0.0044875	-0.00867922
170.775	2.62749	2.46049	-0.00444245	-0.00908345
171.464	2.63771	2.46063	-0.00450048	-0.0091646
172.152	2.70109	2.45471	-0.00440101	-0.00878838
172.841	3.11998	2.46376	-0.00439817	-0.00800512
173.5293	2.950845	2.460577	-0.00451328	-0.00864367
174.218	2.79938	2.46386	-0.00444778	-0.008598621
174.906	2.89763	2.46545	-0.00445855	-0.00833979
175.595	2.848758	2.46367	-0.0044631	-0.00846582
176.2832	3.06181	2.46596	-0.00447071	-0.0082868
176.972	3.41385	2.471283	-0.00439072	-0.00721325
177.66	3.47274	2.46472	-0.00437565	-0.00733704
178.349	3.44233	2.46427	-0.00444675	-0.0076639
179.037	3.50621	2.4668	-0.0043821	-0.00737899
179.726	3.6119	2.46824	-0.00438675	-0.00709891
180.414	3.56062	2.46983	-0.00442684	-0.00718535
181.103	3.61065	2.46966	-0.00445249	-0.00730656
181.791	3.62221	2.46855	-0.00440192	-0.00689702
182.479	3.50118	2.47407	-0.00437716	-0.00705837
183.168	3.62584	2.47381	-0.00450153	-0.00738562
183.856	3.63024	2.47034	-0.00436224	-0.006977296
184.545	3.661119	2.47427	-0.00439626	-0.00709716
185.2334	3.69665	2.47598	-0.00443076	-0.007179399
185.922	3.6493	2.47158	-0.0044642	-0.0072209
186.61	3.63177	2.47287	-0.004406	-0.00691828
187.299	3.76139	2.47393	-0.00443142	-0.00719655
187.9873	3.90313	2.4765	-0.00445512	-0.00708837
188.676	3.90297	2.480037	-0.00436389	-0.00637081
189.364	3.90407	2.479846	-0.00446362	-0.00690122
190.053	3.85653	2.47742	-0.0044392	-0.00691467
190.741	3.43577	2.475522	-0.00444854	-0.00741356
191.43	3.438767	2.47997	-0.00439022	-0.00728027
192.118	3.46089	2.47959	-0.004498	-0.00770029
192.807	4.06814	2.48116	-0.00445261	-0.006636668
193.495	4.0965	2.48293	-0.00435767	-0.00605085
194.184	3.88971	2.48094	-0.00447691	-0.00674042
194.872	3.78136	2.48475	-0.004399389	-0.00717079
195.561	3.86465	2.48429	-0.00438315	-0.00674698
196.249	3.86359	2.48597	-0.00446518	-0.00683467
196.9375	4.20171	2.48764	-0.00446469	-0.00678347
197.626	4.26026	2.4876	-0.00437167	-0.00610155
198.314	3.723315	2.48357	-0.004398779	-0.00636321
199.003	3.709965	2.48452	-0.00446176	-0.007334
199.691	3.89593	2.4882	-0.00442583	-0.00681171
200.38	3.86268	2.49215	-0.00444142	-0.00682143
201.068	4.24428	2.48685	-0.00446328	-0.00634842
201.757	4.25055	2.49063	-0.00444267	-0.00605748
202.445	4.31711	2.48836	-0.00442097	-0.00571208
203.134	4.40824	2.49405	-0.00446784	-0.00603863
203.822	4.52417	2.49316	-0.004507978	-0.00592129
204.511	4.5079	2.4965	-0.00441536	-0.00547981
205.199	4.42347	2.49478	-0.004486348	-0.00600815
205.8877	4.39155	2.49532	-0.00447516	-0.00601699
206.576	4.27782	2.49353	-0.00443744	-0.005945053
207.265	4.53635	2.492574	-0.00442452	-0.0054112
207.953	4.56437	2.49786	-0.00445623	-0.0057779
208.6416	4.54112	2.49893	-0.00445356	-0.00586515
209.33	4.87311	2.502281	-0.00439448	-0.00482806
210.019	4.73573	2.50089	-0.00443426	-0.00537169
210.707	4.67407	2.49576	-0.00448291	-0.00541423
211.396	4.44634	2.49863	-0.004403241	-0.00561482
212.084	4.30945	2.50385	-0.00441577	-0.00575907
212.772	4.46687	2.50626	-0.0044935	-0.005881126
213.461	4.89805	2.50057	-0.00448894	-0.00543994
214.149	4.75166	2.50406	-0.0044103	-0.00515473
214.838	4.67245	2.50049	-0.00450029	-0.00551148
215.526	4.88535	2.50384	-0.00448794	-0.00507328
216.215	4.86839	2.5049	-0.0044431	-0.00497523
216.903	4.85955	2.50657	-0.00445634	-0.00498206
217.5918	4.94701	2.50758	-0.00452102	-0.00526099
218.28	4.92314	2.50812	-0.00446121	-0.00489536
218.969	4.83129	2.50239	-0.00443183	-0.00483055
219.657	5.1169	2.505594	-0.00446471	-0.00492913
220.3457	5.24288	2.51363	-0.00441841	-0.0042667
221.034	5.1577	2.51153	-0.00446599	-0.00440408
221.723	5.09461	2.51171	-0.00445235	-0.0047397
222.411	5.06158	2.51179	-0.00442658	-0.00485133
223.1	5.12723	2.50729	-0.00438526	-0.00448335
223.788	5.339365	2.51019	-0.00445034	-0.00420721
224.477	5.34134	2.51433	-0.00446084	-0.00400466
225.165	5.51168	2.51383	-0.00441492	-0.00361764
225.854	5.47906	2.51432	-0.00447622	-0.00389284
226.542	5.40347	2.51696	-0.00448022	-0.00414579
227.23	5.23309	2.51125	-0.00443277	-0.00412412
227.919	5.20354	2.51937	-0.00439835	-0.00428996
228.607	5.27971	2.51884	-0.00449403	-0.004365271
229.2959	5.57619	2.51839	-0.00446893	-0.00395459
229.984	5.69851	2.52146	-0.00444062	-0.00332051
230.673	5.63243	2.5177	-0.00445194	-0.00359291
231.361	5.480083	2.51795	-0.0044546	-0.00387091
232.0498	5.10975	2.52156	-0.00444847	-0.004069305
232.738	5.24776	2.52207	-0.00439682	-0.00421184
233.427	5.34989	2.52165	-0.00445668	-0.00429958
234.115	5.828434	2.52078	-0.00449633	-0.00403071
234.804	5.869091	2.52201	-0.004446201	-0.00300588
235.492	5.8455	2.52133	-0.00447374	-0.00318818
236.181	5.89983	2.52874	-0.0044752	-0.00324864
236.869	6.10976	2.52655	-0.00448946	-0.00303336
237.558	5.991066	2.526593	-0.00445159	-0.00261475
238.246	6.14604	2.528414	-0.00442349	-0.00243521
238.935	6.08059	2.52742	-0.00452225	-0.0031187
239.623	5.95065	2.52766	-0.00443554	-0.00289188
240.312	5.995204	2.52707	-0.00447207	-0.00281744
241	6.11864	2.53194	-0.00447031	-0.00249605
241.688	6.0816	2.53265	-0.00450691	-0.00282682
242.377	6.09411	2.53007	-0.00449023	-0.00303314
243.065	6.10292	2.53511	-0.004446846	-0.00267477
243.754	6.07978	2.52973	-0.00443279	-0.00287555
244.442	6.09528	2.53184	-0.0044397	-0.00292328
245.131	6.12621	2.53729	-0.00447449	-0.002724234
245.819	6.12946	2.5317	-0.004396481	-0.00236266
246.508	6.24673	2.54115	-0.0044661	-0.00208043
247.196	6.178257	2.53583	-0.00450165	-0.00275076
247.885	6.06013	2.53732	-0.0044725	-0.00261607
248.573	6.06837	2.53669	-0.00442675	-0.00288489
249.262	6.17647	2.53795	-0.00443544	-0.00238921
249.9502	6.20916	2.54073	-0.00448025	-0.00274988
250.639	6.25109	2.53525	-0.00450516	-0.0024762
251.327	6.216	2.54412	-0.00442165	-0.00241526
252.016	6.17759	2.53829	-0.00441768	-0.00254043
252.7041	6.19519	2.54105	-0.00446139	-0.0026185
253.393	6.23536	2.54562	-0.00451632	-0.00275766
254.081	6.28256	2.54009	-0.00443675	-0.00211131
254.77	6.35108	2.54615	-0.00441227	-0.00209998
255.458	6.287231	2.5466	-0.0044919	-0.00246788
256.146	6.25031	2.54403	-0.00445631	-0.00231691
256.835	6.24807	2.54685	-0.00446669	-0.00220918
257.523	6.34102	2.54637	-0.004437692	-0.00210076
258.212	7.198451	2.5486	-0.00448746	-0.00123853
258.9	7.15741	2.54859	-0.00451061	-0.00124501
259.589	7.152112	2.54725	-0.00442677	-0.000891604
260.277	7.03324	2.54803	-0.00444436	-0.00104853
260.966	6.257678	2.55177	-0.00451344	-0.002325044
261.6543	6.267	2.54931	-0.00451994	-0.00243414
262.343	6.55854	2.5538	-0.0044308	-0.00153295
263.031	7.22903	2.552876	-0.0044066	-0.00116795
263.72	7.35514	2.55228	-0.00447779	-0.000650723
264.4082	7.231883	2.55123	-0.00444809	-0.000770485
265.097	7.171474	2.55519	-0.0044583	-0.00104339
265.785	7.18366	2.55697	-0.004478991	-0.00067827
266.474	7.48082	2.55561	-0.00450229	-0.000787804
267.162	7.5803	2.55586	-0.00447607	-0.000337441
267.851	7.4536	2.55683	-0.00439962	-3.24281e-05
268.539	7.00241	2.55602	-0.00447349	-0.00117203
269.228	6.98626	2.55647	-0.0044782	-0.00134847
269.916	7.08322	2.56282	-0.00445237	-0.001098322
270.604	7.45599	2.558	-0.00440885	-0.000554682
271.293	7.34476	2.56203	-0.00447798	-0.0005804759
271.981	7.17757	2.55862	-0.00451535	-0.00100552
272.67	6.94846	2.55971	-0.0044272	-0.00118178
273.3584	7.05445	2.56484	-0.00444281	-0.001289923
274.047	7.20917	2.56699	-0.004475168	-0.00114292
274.735	7.3327	2.56193	-0.00449912	-0.000941736
275.424	7.44189	2.5697	-0.00440716	-0.000226107
276.1123	7.59999	2.56755	-0.00445137	0.000147808
276.801	6.98177	2.56402	-0.00453141	-0.0012025
277.489	7.27345	2.56958	-0.00443393	-0.000678165
278.178	7.31202	2.56806	-0.00441387	-0.000753572
278.866	7.39307	2.56202	-0.00442525	-0.000540842
279.555	7.55329	2.57596	-0.00445035	-0.000384913
280.243	7.41497	2.56662	-0.00440509	-0.000270276
280.932	7.25392	2.56809	-0.004452337	-0.000689509
281.62	7.34554	2.57023	-0.00449917	-0.00100196
282.309	7.45198	2.57176	-0.00441485	-0.0003896862
282.997	7.55053	2.57172	-0.00446586	-0.000155866
283.686	7.67817	2.57423	-0.00442623	9.02456e-05
284.374	7.53318	2.57129	-0.0045073	-0.000343115
285.0625	7.44246	2.57177	-0.00441152	-0.000258123
285.751	7.53316	2.57572	-0.00445876	-0.000426605
286.439	7.61482	2.5774	-0.00451788	-0.000407814
287.128	7.67412	2.57412	-0.00443189	-3.895866e-05
287.816	7.80158	2.58045	-0.0044381	0.000153574
288.505	7.73885	2.57825	-0.0045215	4.55131e-05
289.193	7.55278	2.57648	-0.00451493	-0.000331265
289.882	7.67573	2.57999	-0.00442198	8.248513e-05
290.57	7.81187	2.58021	-0.004431291	0.00019757
291.259	7.90165	2.57993	-0.004488104	0.000239279
291.947	8.10245	2.58194	-0.00439503	0.000835535
292.636	8.05141	2.57779	-0.004474449	0.000717968
293.324	7.8906	2.58111	-0.00445913	0.000353202
294.0127	7.89362	2.58322	-0.004510826	0.000204607
294.701	8.08373	2.58487	-0.00448003	0.000903059
295.39	8.1306	2.584862	-0.00446141	0.00122813
296.078	8.206295	2.578145	-0.00452048	0.000828277
296.7666	8.08325	2.58507	-0.00443392	0.000750128
297.455	8.0292	2.58497	-0.00448119	0.00079173
298.144	8.15403	2.58668	-0.00445465	0.0007589095
298.832	8.25277	2.58814	-0.00455029	0.0007620501
299.521	8.29664	2.58973	-0.00446432	0.00132382
300.209	8.345088	2.59071	-0.00444162	0.00153055
300.897	8.34773	2.59023	-0.00451303	0.00120939
301.586	8.210887	2.58923	-0.00445765	0.000918945
302.274	8.30982	2.590318	-0.00446958	0.00107292
302.963	8.46321	2.59176	-0.00444424	0.00150694
303.651	8.622118	2.59476	-0.004502289	0.00142364
304.34	8.66928	2.594	-0.00453214	0.00171677
305.028	8.68225	2.59529	-0.00442373	0.00207253
305.7168	8.43032	2.59368	-0.00445215	0.001308975
306.405	8.62797	2.59443	-0.00442608	0.00158801
307.094	8.7624	2.596158	-0.00452354	0.00187415
307.782	8.75326	2.59807	-0.00441382	0.002140034
308.4707	8.87841	2.59775	-0.00444548	0.00221416
309.159	8.83441	2.5985	-0.00450272	0.00202046
309.848	8.69857	2.59755	-0.00444095	0.00203822
310.536	8.8112	2.59771	-0.00447054	0.00229017
311.225	8.95643	2.60198	-0.00447678	0.00213458
311.913	8.98226	2.60141	-0.00449475	0.002288444
312.602	9.56942	2.59859	-0.00438122	0.00392348
313.29	9.3057	2.60424	-0.00441718	0.00334995
313.979	9.22451	2.59842	-0.00447479	0.00293296
314.667	9.19053	2.6039	-0.00447134	0.00281688
315.355	9.33049	2.60248	-0.00444658	0.00288121
316.044	9.29587	2.60246	-0.00440051	0.00328943
316.732	9.29444	2.60774	-0.00453758	0.00286369
317.4209	9.48112	2.60697	-0.00448856	0.00327022
318.109	9.33671	2.6056	-0.0044554	0.00329495
318.798	9.28135	2.60825	-0.00453367	0.003144
319.486	9.58407	2.60893	-0.00448535	0.00334383
320.1748	9.513648	2.61044	-0.004497299	0.00329202
320.863	9.61481	2.61106	-0.00447528	0.00399311
321.552	9.58169	2.61135	-0.00442696	0.00390718
322.24	9.48722	2.61137	-0.00451495	0.0032132
322.929	9.54466	2.61052	-0.00450103	0.0034258
323.617	9.65218	2.61282	-0.00448145	0.00377085
324.306	9.70341	2.61479	-0.004466841	0.00381602
324.994	9.74499	2.61468	-0.0045098	0.00374899
325.683	9.71104	2.61571	-0.00452089	0.00394338
326.371	9.65367	2.61398	-0.00442885	0.00390599
327.06	9.7233	2.61494	-0.00445581	0.00396733
327.748	9.87774	2.616363	-0.0044969	0.00398048
328.437	9.92587	2.61869	-0.00446041	0.00433931
329.125	9.94779	2.61811	-0.00443337	0.00460081
329.813	9.95569	2.620126	-0.00447376	0.00427992
330.502	9.87206	2.61836	-0.00446603	0.00414518
331.19	9.91927	2.61929	-0.00442973	0.00454624
331.879	10.0582	2.62132	-0.00449149	0.00472466
332.567	10.2071	2.62145	-0.00447004	0.00487657
333.256	10.1641	2.62267	-0.00450993	0.00475572
333.944	10.2006	2.623626	-0.00443418	0.00510096
334.633	10.1349	2.622272	-0.00443822	0.00488622
335.321	10.1525	2.623	-0.00447572	0.004449
336.01	10.3891	2.625726	-0.00448925	0.00519858
336.698	10.4076	2.62619	-0.00445632	0.0052831
337.387	10.50216	2.62763	-0.00447036	0.00567113
338.0752	10.4719	2.62739	-0.00447026	0.004971168
338.764	10.384	2.62638	-0.00445535	0.00521343
339.452	10.441	2.62723	-0.00439094	0.00545243
340.141	10.6657	2.62936	-0.00451886	0.00546529
340.8291	10.6496	2.62978	-0.00447798	0.005505865
341.518	10.75108	2.6318	-0.00444756	0.00586846
342.206	10.75742	2.632262	-0.00444123	0.006123363
342.895	10.6653	2.63099	-0.00454844	0.00571064
343.583	10.694	2.63149	-0.00451721	0.00571407
344.271	10.8554	2.63259	-0.00444669	0.00638992
344.96	10.9119	2.63445	-0.004489793	0.00615035
345.648	10.9264	2.635	-0.00447194	0.00614552
346.337	10.97178	2.63604	-0.00449395	0.00643511
347.025	10.8819	2.63478	-0.00446881	0.00649487
347.714	10.9318	2.63486	-0.00447883	0.00614949
348.402	11.0778	2.63667	-0.00451474	0.00626893
349.091	11.1509	2.63867	-0.00445179	0.00692696
349.7793	11.2987	2.639549	-0.00448939	0.00710796
350.468	11.2595	2.64016	-0.00450127	0.00668211
351.156	11.1772	2.63934	-0.0044697	0.00665698
351.845	11.2067	2.63928	-0.00442035	0.00702589
352.5332	11.3578	2.64218	-0.00445425	0.00708206
353.222	11.4092	2.6431	-0.00452349	0.00687248
353.91	11.4349	2.64312	-0.00438041	0.007509362
354.599	11.4587	2.64407	-0.00448214	0.00739358
355.287	11.4074	2.6429	-0.00445509	0.00702693
355.976	11.4212	2.64375	-0.004454338	0.00695098
356.664	11.5951	2.64617	-0.00437312	0.00796926
357.353	11.63552	2.64703	-0.00448544	0.0076361
358.041	11.7155	2.6478	-0.00452437	0.00742251
358.729	11.726	2.64788	-0.0044346	0.00819627
359.418	11.6503	2.64763	-0.00448987	0.007623686
360.106	11.6838	2.64793	-0.00447444	0.00758851
360.795	11.8544	2.65009	-0.00450116	0.007989102
361.4834	11.9098	2.65116	-0.00443457	0.00845506
362.172	11.9651	2.65221	-0.0044953	0.00804205
362.86	12.0245	2.6518	-0.00445851	0.00820855
363.549	11.951	2.65207	-0.00440515	0.00846188
364.2373	11.91604	2.6517	-0.00441829	0.00812165
364.926	12.1598	2.65372	-0.00445557	0.00856707
365.614	12.1993	2.65597	-0.00446789	0.00864498
366.303	12.21967	2.65552	-0.00441554	0.00907158
366.991	12.24798	2.65634	-0.00445671	0.00865735
367.68	12.2075	2.656543	-0.00446535	0.00905998
368.368	12.1701	2.65521	-0.00441271	0.00880702
369.057	12.3123	2.65765	-0.00450278	0.008724005
369.745	12.4068	2.65915	-0.00446394	0.00925596
370.434	12.4623	2.66058	-0.00445079	0.00931905
371.122	12.5181	2.66073	-0.00442073	0.00931897
371.811	12.47	2.66114	-0.00449085	0.00900198
372.499	12.3936	2.66003	-0.00443889	0.00932823
373.1875	12.5535	2.66166	-0.00442052	0.00974119
373.876	12.6848	2.66322	-0.00448835	0.00935777
374.564	12.7069	2.66418	-0.00445082	0.00982197
375.253	12.7481	2.66471	-0.00446488	0.00990728
375.941	12.73511	2.66474	-0.00447894	0.00993573
376.63	12.6537	2.66373	-0.00448396	0.00954022
377.318	12.7627	2.66547	-0.00446797	0.00977911
378.007	12.9528	2.66805	-0.004355968	0.0103195
378.695	13	2.66818	-0.00454422	0.0103256
379.384	13.108	2.66958	-0.00446033	0.0103848
380.072	12.98606	2.66885	-0.00443418	0.0105263
380.761	12.9265	2.66852	-0.00442387	0.0104442
381.449	13.0491	2.66982	-0.00450514	0.01039
382.1377	13.1676	2.67204	-0.00450337	0.0106062
382.826	13.3266	2.6721	-0.00440509	0.0112149
383.515	13.37645	2.67308	-0.00445522	0.0111378
384.203	13.3275	2.67425	-0.00443653	0.011037
384.8916	13.2419	2.67278	-0.00448607	0.0108897
385.58	13.3019	2.67385	-0.00441761	0.0111941
386.269	13.4592	2.67604	-0.00441498	0.0115644
386.957	13.51221	2.67677	-0.00445756	0.0111853
387.646	13.5133	2.67703	-0.00445022	0.0112888
388.334	13.786	2.67707	-0.00447347	0.0116776
389.022	13.55385	2.67735	-0.004406359	0.0118435
389.711	13.56583	2.678103	-0.00449643	0.0112091
390.399	13.7444	2.67963	-0.004503008	0.0117684
391.088	13.7521	2.68091	-0.00445005	0.0121539
391.776	14.6841	2.68851	-0.00447711	0.0141313
392.465	14.1589	2.68163	-0.00443717	0.0128427
393.153	14.0974	2.68163	-0.00445953	0.0126478
393.8418	14.1142	2.685102	-0.00438483	0.0130329
394.53	14.0938	2.68249	-0.00441567	0.0130493
395.219	14.0898	2.6838	-0.00447462	0.0123405
395.907	14.0788	2.68582	-0.00444032	0.0124888
396.5957	14.0524	2.68641	-0.00444634	0.0126441
397.284	14.0353	2.6857	-0.00440584	0.0126766
397.973	14.0254	2.68529	-0.00451526	0.0123041
398.661	14.6484	2.69082	-0.00448936	0.0133081
399.35	14.568	2.68674	-0.00443426	0.0136359
400.038	14.5136	2.69066	-0.00448211	0.01346983
400.727	14.483	2.69248	-0.00447716	0.01340576
401.415	14.4754	2.6883	-0.00446782	0.0133895
402.104	14.5771	2.69246	-0.0044163	0.0140748
402.792	15.1928	2.6991	-0.00442639	0.01512438
403.48	15.0345	2.68605	-0.00452467	0.0145388
404.169	14.8977	2.69317	-0.00445635	0.014498
404.857	14.82441	2.69265	-0.00437123	0.0144933
405.5459	14.7892	2.69454	-0.00441194	0.0141402
406.234	14.806	2.69657	-0.00449795	0.0138249
406.923	15.11	2.68811	-0.00447972	0.0143824
407.611	15.367	2.6975	-0.00438073	0.0155215
408.2998	15.19	2.70232	-0.004513822	0.0149382
408.988	15.1115	2.69618	-0.00443617	0.0149901
409.677	15.0815	2.6969	-0.00446803	0.0147303
410.365	15.0522	2.69987	-0.004433556	0.0149887
411.054	15.0306	2.69818	-0.00446292	0.0146643
411.742	15.0484	2.70209	-0.00446182	0.01449131
412.431	16.3258	2.706708	-0.0043878	0.0167504
413.119	15.7752	2.70121	-0.00445864	0.0163118
413.808	15.5831	2.7006	-0.004448873	0.0159373
414.496	15.5566	2.70126	-0.00447209	0.0157217
415.185	15.5721	2.70835	-0.00437525	0.0158046
415.873	15.5027	2.70694	-0.00439057	0.0158268
416.562	15.46	2.7019	-0.004509347	0.0154039
417.25	15.58662	2.70801	-0.00445479	0.0159467
417.938	15.5516	2.70641	-0.00443439	0.0159932
418.627	15.9647	2.70799	-0.00438967	0.0170485
419.315	15.8612	2.7084	-0.00448227	0.0163741
420.004	15.83921	2.70641	-0.00447287	0.0163668
420.692	15.8057	2.71071	-0.00437318	0.01641966
421.381	15.782	2.70995	-0.00440558	0.0163221
422.069	15.7864	2.70858	-0.00443201	0.0162459
422.758	16.1448	2.70963	-0.00444318	0.0166532
423.446	16.0819	2.709877	-0.00437017	0.01706147
424.135	16.0448	2.71592	-0.00440263	0.0171006
424.823	16.0271	2.71468	-0.00445316	0.0167676
425.512	16.004	2.71587	-0.00438961	0.0168485
426.2002	16.0914	2.71686	-0.00444015	0.0169625
426.889	16.1246	2.71484	-0.004403857	0.0174167
427.577	16.0983	2.71761	-0.00444999	0.0167692
428.266	16.2237	2.71785	-0.00444224	0.0172341
428.9541	16.216	2.71621	-0.00435221	0.0173396
429.643	16.3313	2.72089	-0.00440659	0.0175472
430.331	16.2828	2.71865	-0.004404102	0.0174726
431.02	16.3516	2.71961	-0.00444327	0.0172527
431.708	16.3639	2.72135	-0.00440505	0.01755744
432.396	16.4624	2.71855	-0.00439953	0.0179474
433.085	16.4917	2.72346	-0.00451576	0.0176467
433.773	16.5077	2.72332	-0.00442819	0.01772742
434.462	16.6221	2.72322	-0.00442135	0.0184116
435.15	16.6805	2.72571	-0.00440141	0.0182371
435.839	16.732	2.72468	-0.00448975	0.0181993
436.527	16.7362	2.72426	-0.00446348	0.0182137
437.216	16.8005	2.72769	-0.00441276	0.0185327
437.9043	16.8959	2.72455	-0.00443759	0.0186027
438.593	16.8102	2.72819	-0.00444885	0.0185277
439.281	16.9168	2.72757	-0.0044685	0.0185881
439.97	16.9145	2.72563	-0.00441794	0.0189404
440.6582	17.7729	2.73631	-0.00445357	0.0195749
441.347	17.0289	2.73143	-0.004490748	0.0190203
442.035	17.0605	2.72528	-0.00438773	0.019423
442.724	17.1466	2.73325	-0.00443398	0.01959428
443.412	17.2074	2.73086	-0.00448293	0.0192114
444.101	17.209	2.73309	-0.00443311	0.01952368
444.789	17.2941	2.73225	-0.00436877	0.0198739
445.478	17.4069	2.73725	-0.0044774	0.0197873
446.166	17.3659	2.7353	-0.00446776	0.0197073
446.854	17.51795	2.73543	-0.0044152	0.0204078
447.543	17.4669	2.73574	-0.00443185	0.0201311
448.231	17.5023	2.73503	-0.0044463	0.0201595
448.92	17.5556	2.7385	-0.00440731	0.0202629
449.6084	17.7293	2.73801	-0.004409275	0.0209637
450.297	17.6506	2.74039	-0.00447769	0.0203025
450.985	17.6381	2.73993	-0.00447373	0.02050112
451.674	17.7086	2.74092	-0.00438605	0.0209951
452.3623	17.7077	2.74199	-0.00454429	0.0203304
453.051	18.1443	2.74288	-0.00444734	0.0230134
453.739	17.7564	2.74331	-0.00440626	0.0212163
454.428	17.7747	2.74338	-0.00444965	0.0212052
455.116	17.8357	2.74115	-0.00450106	0.021153
455.805	17.8274	2.74348	-0.0044488	0.0214982
456.493	17.8824	2.74573	-0.00440801	0.021618
457.182	18.0066	2.74108	-0.00452358	0.0215498
457.87	18.0185	2.74569	-0.00448902	0.0217458
458.559	18.129	2.74849	-0.00447989	0.0221576
459.247	18.21056	2.74978	-0.00444065	0.0221964
459.936	18.1829	2.748729	-0.00452148	0.0217725
460.624	18.27232	2.74875	-0.00449151	0.0219897
461.3125	18.2858	2.74917	-0.00443289	0.0226161
462.001	18.39056	2.75203	-0.00448237	0.0222427
462.689	18.4637	2.75171	-0.0045244	0.0226247
463.378	19.3686	2.75057	-0.00448394	0.0251186
464.066	19.3074	2.75534	-0.00443254	0.0253611
464.755	19.2692	2.75812	-0.00448546	0.0245689
465.443	19.2405	2.74855	-0.00449307	0.0246358
466.132	19.2368	2.75847	-0.0044093	0.0249681
466.82	19.2036	2.75615	-0.00445386	0.0247716
467.509	19.105	2.75595	-0.00446682	0.0244104
468.197	19.4439	2.76103	-0.00451567	0.0250067
468.886	19.3838	2.757828	-0.00444605	0.0253479
469.574	19.36985	2.76024	-0.004410197	0.0252033
470.2627	19.3549	2.760638	-0.004519911	0.0249316
470.951	19.3554	2.75679	-0.00443017	0.0252122
471.64	19.3464	2.76302	-0.00446411	0.0251909
472.328	19.4946	2.76515	-0.00444521	0.0254748
473.0166	19.5489	2.7599	-0.00450153	0.0254886
473.705	19.5507	2.76039	-0.00443647	0.0257265
474.394	19.6242	2.763751	-0.00441367	0.0259059
475.082	19.5503	2.76534	-0.004502512	0.02558649
475.771	19.5138	2.76857	-0.0044801	0.0256445
476.459	19.7512	2.76013	-0.004455294	0.0259747
477.147	19.9037	2.7656	-0.00441546	0.0268408
477.836	19.913	2.76883	-0.00442947	0.026528
478.524	20.0099	2.766567	-0.00447061	0.0266885
479.213	19.9974	2.7732	-0.00441055	0.0270133
479.901	19.89369	2.76904	-0.00445237	0.0269598
480.59	20.154	2.76844	-0.00446217	0.0272063
481.278	20.2908	2.76957	-0.00451297	0.027586
481.9668	20.3666	2.76749	-0.00445467	0.0281562
482.655	20.4154	2.77077	-0.00445264	0.0282668
483.344	20.39876	2.772465	-0.00451845	0.0282224
484.032	20.4515	2.77512	-0.00449025	0.0283412
484.7207	20.5317	2.7704	-0.00445429	0.0284204
485.409	20.4311	2.77411	-0.004447	0.0289757
486.098	20.5683	2.77686	-0.00447053	0.0286674
486.786	20.6387	2.77682	-0.00455512	0.0288091
487.475	20.6591	2.774874	-0.00441656	0.0295177
488.163	20.5673	2.77356	-0.004469	0.0291259
488.852	20.7085	2.77651	-0.00446983	0.0293198
489.54	20.6178	2.77792	-0.00451876	0.0294478
490.229	20.6223	2.7741	-0.00447366	0.0298082
490.917	20.7565	2.77576	-0.0044092	0.0298806
491.605	20.6774	2.78253	-0.004469425	0.0294831
492.294	20.6699	2.778419	-0.00446728	0.0296338
492.982	20.7531	2.78065	-0.00442476	0.0297108
493.6709	20.8511	2.78525	-0.00440943	0.0300869
494.359	20.8839	2.77991	-0.00448457	0.0299718
495.048	21.0621	2.781177	-0.00447702	0.0303725
495.736	21.0365	2.78108	-0.00442719	0.0310107
496.4248	20.7416	2.78468	-0.00449918	0.0304711
497.113	20.8221	2.78798	-0.00445889	0.0304796
497.802	21.1616	2.78791	-0.00447526	0.031077
498.49	21.0981	2.78511	-0.00442472	0.031373
499.179	21.1736	2.78439	-0.00447372	0.0313956
499.867	21.2088	2.79113	-0.0044833	0.0312461
500.556	21.1791	2.78814	-0.004431434	0.0316029
501.244	21.1593	2.78944	-0.00442028	0.0314984
501.933	21.3284	2.793	-0.00443258	0.0317358
502.621	21.259	2.78987	-0.00444052	0.0318746
503.31	21.3803	2.79035	-0.00440259	0.0324384
503.998	21.4538	2.79492	-0.00441331	0.0328607
504.687	21.4202	2.79047	-0.00448654	0.0324652
505.375	21.4973	2.79711	-0.00444668	0.03299
506.063	21.4108	2.79042	-0.00442496	0.0330271
506.752	21.43585	2.79131	-0.004416856	0.0330944
507.44	21.5709	2.796325	-0.00446783	0.0330261
508.129	21.6475	2.796186	-0.00445473	0.0334757
508.817	21.6067	2.79643	-0.00440758	0.0340873
509.506	21.6328	2.801491	-0.00446248	0.03380549
510.194	21.5857	2.79781	-0.00444053	0.0344175
510.883	21.698	2.79774	-0.004475059	0.034531
511.571	21.7088	2.802181	-0.00439789	0.0347611
512.26	21.7436	2.79759	-0.004473	0.0347021
512.948	21.6712	2.80516	-0.00448747	0.0342838
513.637	21.704	2.80333	-0.0043797	0.0350705
514.3252	21.95466	2.806026	-0.00441998	0.0355065
515.014	21.9674	2.8098	-0.00446289	0.0353623
515.702	21.9989	2.80503	-0.00446534	0.0356507
516.391	22.02	2.80535	-0.00440625	0.0359898
517.0791	21.9824	2.80585	-0.00437898	0.036037
517.768	21.9938	2.80566	-0.00448266	0.0358276
518.456	22.0807	2.81	-0.00443923	0.0364824
519.145	21.99847	2.80771	-0.004443699	0.0364023
519.833	21.9974	2.81127	-0.00440952	0.0362409
520.521	22.0782	2.80889	-0.00444184	0.0365042
521.21	22.09989	2.80914	-0.00437049	0.0369237
521.898	22.098	2.81352	-0.00443699	0.0366595
522.587	22.1928	2.81201	-0.00440666	0.0366739
523.275	22.1367	2.81162	-0.00439599	0.0373623
523.964	22.2047	2.81287	-0.00437062	0.037298
524.652	22.2147	2.81282	-0.00446117	0.0372223
525.341	22.2009	2.81611	-0.00448651	0.0373526
526.0293	22.2167	2.81426	-0.00439329	0.0377682
526.718	22.2449	2.81588	-0.004341796	0.0377287
527.406	22.2034	2.81697	-0.00444367	0.0377178
528.095	22.3464	2.81669	-0.00438239	0.0378797
528.7832	22.2617	2.81861	-0.00440101	0.03793266
529.472	22.284	2.817971	-0.0043968	0.0383034
530.16	22.3095	2.81848	-0.00444308	0.0379563
530.849	22.3963	2.819329	-0.00442778	0.038491
531.537	22.4899	2.823	-0.00437556	0.0386865
532.226	22.4219	2.82139	-0.00443334	0.0386064
532.914	22.5069	2.82203	-0.00442907	0.0390192
533.603	22.5486	2.82191	-0.00440749	0.03909
534.291	22.5548	2.823971	-0.0043518	0.0396078
534.979	22.6148	2.8243	-0.004476632	0.0395429
535.668	22.6319	2.8254	-0.00446305	0.03985171
536.356	22.6378	2.82433	-0.00432895	0.0402248
537.045	22.6622	2.82548	-0.00443269	0.0402912
537.7334	22.6566	2.82723	-0.00443915	0.0403103
538.422	22.69743	2.82766	-0.004425	0.0405917
539.11	22.7362	2.82753	-0.00437917	0.04093273
539.799	22.8123	2.82951	-0.0044332	0.0412633
540.4873	22.82354	2.82945	-0.00447958	0.041135
541.176	22.899	2.8296	-0.00435498	0.0416598
541.864	22.9665	2.83006	-0.00444011	0.041885
542.553	23.183	2.83163	-0.0043823	0.0467466
543.241	22.8629	2.83406	-0.004457402	0.0459628
543.93	22.7961	2.83155	-0.00439718	0.0460154
544.618	22.7969	2.8339	-0.00437144	0.0460092
545.307	22.9235	2.83407	-0.00450139	0.04594098
545.995	22.9431	2.83439	-0.00444013	0.0461763
546.684	23.2059	2.83897	-0.00437463	0.0468617
547.372	23.1413	2.8375	-0.0044322	0.0468701
548.061	23.4106	2.83568	-0.00446655	0.0471284
548.749	23.7276	2.83517	-0.004440933	0.0494433
549.4375	23.955	2.83966	-0.00437462	0.0506095
550.126	23.9166	2.83779	-0.00444861	0.0512366
550.814	23.9076	2.84179	-0.00447224	0.0515161
551.503	23.9181	2.83948	-0.00442878	0.0521385
552.191	23.9776	2.84131	-0.00435851	0.0527561
552.88	23.99662	2.84187	-0.00446128	0.0527518
553.568	24.0043	2.84097	-0.0045177	0.052931
554.257	24.0148	2.8425	-0.00438574	0.053644
554.945	23.9823	2.843945	-0.00443714	0.0538482
555.634	24.0068	2.84591	-0.00442744	0.053769
556.322	24.0193	2.84492	-0.00445382	0.053921
557.011	24.0662	2.84565	-0.00442444	0.05444229
557.699	24.06708	2.84858	-0.00437391	0.0548856
558.3877	24.0733	2.85047	-0.00447594	0.0545209
559.076	24.0745	2.84562	-0.00441562	0.0549281
559.765	24.0746	2.84712	-0.00438933	0.0549843
560.453	24.2128	2.85367	-0.004379516	0.0558374
561.1416	23.9324	2.847	-0.00449408	0.0554776
561.83	24.2832	2.85343	-0.00445284	0.0558037
562.519	24.3814	2.85224	-0.00434934	0.0570903
563.207	24.3681	2.85034	-0.00437767	0.0575629
563.896	24.3891	2.854497	-0.00441913	0.0574986
564.584	24.4981	2.85315	-0.00448194	0.0580109
565.272	24.4467	2.85539	-0.00434384	0.0587469
565.961	24.48353	2.85599	-0.00434689	0.059633
566.649	24.5787	2.85367	-0.00440711	0.0596828
567.338	24.5565	2.85797	-0.00441672	0.0604865
568.026	24.5869	2.85866	-0.00440267	0.0608536
568.715	24.5954	2.85962	-0.00437035	0.061247
569.403	24.6705	2.85723	-0.00443874	0.0615593
570.0918	24.2922	2.85283	-0.00440593	0.0607651
570.78	24.5782	2.86066	-0.00432953	0.0619853
571.469	24.5361	2.85759	-0.004425928	0.06210633
572.157	24.5842	2.86509	-0.00443076	0.0621596
572.8457	24.6256	2.856889	-0.00441883	0.0625032
573.534	24.6887	2.86273	-0.00429251	0.0634492
574.223	24.6791	2.86293	-0.00435918	0.0632555
574.911	24.67787	2.86642	-0.00442146	0.0634873
575.6	24.6619	2.86597	-0.00435707	0.0640452
576.288	24.6382	2.8637	-0.00439031	0.0639144
576.977	24.6361	2.86807	-0.004399403	0.0642904
577.665	24.662	2.866215	-0.00441867	0.0644989
578.354	24.6902	2.86434	-0.00436555	0.06485264
579.042	24.7119	2.86968	-0.00434573	0.0652254
579.73	24.7184	2.86992	-0.00443326	0.0653064
580.419	24.72242	2.86969	-0.00437078	0.065499
581.107	24.7625	2.87148	-0.00440121	0.0658434
581.7959	24.8384	2.86943	-0.004390425	0.0668063
582.484	24.7459	2.86983	-0.00444247	0.066475
583.173	24.9303	2.87197	-0.0043699	0.0674057
583.861	24.9213	2.87449	-0.0043058	0.068359
584.5498	25.441	2.87242	-0.00434676	0.071682
585.238	25.1357	2.88215	-0.004314437	0.0738259
585.927	25.2512	2.88787	-0.00428118	0.0776966
586.615	25.4759	2.89206	-0.00425913	0.0790115
587.304	26.0337	2.8979	-0.00412865	0.0968105
587.992	26.1008	2.90303	-0.004133495	0.100231
588.681	26.3986	2.90786	-0.00400841	0.103968
589.369	26.2823	2.91733	-0.004083104	0.106235
590.058	26.2467	2.91865	-0.00407258	0.107398
590.746	26.2854	2.92642	-0.00407022	0.108326
591.435	26.467	2.93087	-0.00403804	0.110502
592.123	26.6662	2.93326	-0.00406426	0.117039
592.812	26.7902	2.94257	-0.00414174	0.126827
593.5	27.015	2.94995	-0.004026	0.132935
594.188	27.01	2.95329	-0.004067047	0.136521
594.877	27.27227	2.96213	-0.00411735	0.139242
595.565	27.2686	2.96161	-0.00412736	0.1426944
596.254	27.7026	2.97213	-0.004032101	0.147858
596.942	27.6696	2.97656	-0.00405367	0.1563202
597.631	27.5873	2.97716	-0.00409536	0.162307
598.319	27.5117	2.98681	-0.00409106	0.165131
599.008	27.583	2.99467	-0.00405962	0.168212
599.696	27.5028	2.99247	-0.00404913	0.170571
600.385	27.9872	3.00461	-0.0041508	0.183546
601.073	27.995	3.00723	-0.00409933	0.190267
601.762	28.02	3.01624	-0.004037092	0.196465
602.4502	28.0865	3.01737	-0.00412253	0.199348
603.139	27.92601	3.02401	-0.00409677	0.203178
603.827	28.2116	3.03135	-0.00415456	0.210112
604.516	28.1022	3.03694	-0.00403205	0.21598
605.2041	28.2117	3.04186	-0.00406044	0.2214416
605.893	28.4228	3.052851	-0.00413179	0.226268
606.581	28.33326	3.05199	-0.00405785	0.232899
607.27	28.115	3.0566	-0.00407799	0.236655
607.958	27.9724	3.06341	-0.00406015	0.239465
608.646	28.2693	3.06865	-0.00412503	0.245798
609.335	28.6792	3.07567	-0.00414657	0.251957
610.023	28.2584	3.07935	-0.00403731	0.263249
610.712	28.4165	3.08552	-0.00408826	0.26637
611.4	28.5333	3.09041	-0.00407308	0.271202
612.089	28.518	3.09594	-0.00410695	0.277928
612.777	28.5046	3.101723	-0.00403786	0.284067
613.466	28.5211	3.10721	-0.0040737	0.289753
614.1543	28.5462	3.11247	-0.004082019	0.295165
614.843	28.6783	3.11768	-0.00402577	0.301597
615.531	28.3516	3.123	-0.00405319	0.30732
616.22	28.4291	3.12945	-0.00409992	0.309139
616.9082	29.0281	3.12826	-0.00411751	0.3111
617.597	28.2906	3.143168	-0.00405401	0.327043
618.285	28.5742	3.14378	-0.0040309	0.331276
618.974	28.5468	3.15215	-0.00408842	0.3383933
619.662	28.3878	3.16063	-0.00401026	0.343318
620.351	28.6022	3.16234	-0.004048794	0.347329
621.039	28.2992	3.16745	-0.00409483	0.354025
621.728	28.8404	3.17589	-0.00413165	0.36016
622.416	28.44635	3.1798	-0.00407458	0.371405
623.104	28.4356	3.18383	-0.00399579	0.376157
623.793	28.4723	3.19066	-0.0040882	0.381864
624.481	28.4511	3.19525	-0.004107534	0.387967
625.17	28.4136	3.20101	-0.00411587	0.394689
625.8584	28.426	3.20634	-0.00406673	0.401172
626.547	28.4015	3.21284	-0.0041559	0.407226
627.235	28.4251	3.21719	-0.004121	0.413668
627.924	28.3854	3.22252	-0.00402118	0.421891
628.6123	28.186	3.22664	-0.00411931	0.428677
629.301	28.269	3.23446	-0.00411317	0.436958
629.989	28.2254	3.23869	-0.004062207	0.443079
630.678	28.1351	3.24334	-0.00401215	0.448807
631.366	28.1454	3.25116	-0.00407979	0.453707
632.055	28.4195	3.25484	-0.00409963	0.45968
632.743	27.9885	3.26162	-0.00402406	0.471014
633.432	27.9357	3.26669	-0.00406502	0.47458
634.12	28.0725	3.27266	-0.00408389	0.479616
634.809	28.00173	3.27803	-0.00410865	0.487161
635.497	27.9094	3.28242	-0.00401749	0.493278
636.186	27.896	3.28953	-0.00398517	0.500308
636.874	27.8089	3.29526	-0.00413511	0.508194
637.5625	27.7527	3.29927	-0.00406987	0.514431
638.251	27.8444	3.30433	-0.00408691	0.520626
638.939	27.7453	3.30827	-0.00405848	0.527619
639.628	27.7331	3.3202	-0.00416887	0.534029
640.316	27.5015	3.32149	-0.00410156	0.541173
641.005	27.474	3.32723	-0.00403974	0.547636
641.693	27.5779	3.33302	-0.004093125	0.552881
642.382	27.4658	3.33866	-0.00410173	0.559888
643.07	27.4178	3.34585	-0.00407246	0.566569
643.759	27.3161	3.351	-0.004070526	0.576342
644.447	27.257	3.35372	-0.00405417	0.58136
645.136	27.2059	3.359694	-0.00416246	0.588335
645.824	26.9887	3.36522	-0.00405622	0.595403
646.5127	27.1368	3.37137	-0.00405631	0.600566
647.201	27.1052	3.37724	-0.00403796	0.607579
647.89	27.0123	3.38315	-0.00415144	0.6139099
648.578	27.0031	3.38846	-0.00407111	0.620234
649.2666	26.91	3.393878	-0.00399506	0.627928
649.955	26.8525	3.39895	-0.00406471	0.634659
650.644	26.8024	3.40465	-0.00408306	0.641891
651.332	26.743	3.41166	-0.00411922	0.64951
652.021	26.64463	3.41541	-0.00403942	0.656095
652.709	26.5822	3.42123	-0.004025063	0.662856
653.397	26.5154	3.42725	-0.00412633	0.669323
654.086	26.4818	3.43245	-0.00407738	0.6764608
654.774	26.3548	3.43787	-0.00408626	0.683867
655.463	26.314	3.4414	-0.00407075	0.693021
656.151	26.1719	3.44761	-0.00411925	0.701258
656.84	26.1287	3.45352	-0.00410569	0.707787
657.528	26.1841	3.45841	-0.00400306	0.713061
658.2168	26.0102	3.4654	-0.00406902	0.718561
658.905	26.0665	3.470479	-0.00405975	0.725498
659.594	25.84046	3.47642	-0.00405313	0.733705
660.282	25.6985	3.47714	-0.00403432	0.741116
660.9707	25.7991	3.48608	-0.00403313	0.747424
661.659	25.6775	3.49208	-0.00409072	0.754446
662.348	25.5863	3.497894	-0.00407203	0.762223
663.036	25.5148	3.503365	-0.00403682	0.768603
663.725	25.4365	3.5096	-0.00404518	0.776912
664.413	25.3497	3.51505	-0.00415523	0.7829783
665.102	25.2706	3.52051	-0.00405296	0.790279
665.79	25.2831	3.52526	-0.00403818	0.798097
666.479	25.053	3.53083	-0.00410283	0.806024
667.167	25.0655	3.53656	-0.00401932	0.812434
667.855	24.9693	3.5424	-0.00404431	0.820165
668.544	24.8026	3.54771	-0.00402381	0.8281287
669.232	24.7381	3.55316	-0.00411319	0.833636
669.9209	24.7619	3.557425	-0.00412207	0.83806
670.609	24.5388	3.560431	-0.0040119	0.848901
671.298	24.5492	3.56945	-0.00408419	0.854866
671.986	24.5507	3.57528	-0.0040997	0.860255
672.6748	24.3984	3.58107	-0.00407156	0.868433
673.363	24.3446	3.58629	-0.00402265	0.877631
674.052	24.3648	3.5907	-0.003992755	0.883741
674.74	24.0978	3.59921	-0.00407747	0.893105
675.429	24.0004	3.60291	-0.00412471	0.897872
676.117	24.0439	3.608675	-0.00403956	0.903747
676.806	23.9015	3.61333	-0.00403038	0.910918
677.494	23.7275	3.61796	-0.00405908	0.917825
678.183	23.5711	3.62776	-0.00408525	0.928754
678.871	23.3353	3.62676	-0.00396685	0.935587
679.56	23.2944	3.63804	-0.00403047	0.943531
680.248	23.3223	3.63675	-0.00405362	0.948197
680.937	23.3407	3.64747	-0.00413029	0.955629
681.625	23.321	3.650919	-0.003969158	0.962406
682.313	23.2821	3.65776	-0.00401612	0.9683364
683.002	22.97806	3.6629	-0.00412099	0.97733
683.69	23.0842	3.66857	-0.00408299	0.9823072
684.379	22.9099	3.67524	-0.00399414	0.994627
685.067	22.8011	3.68047	-0.00399886	1.00123
685.756	22.8406	3.68701	-0.0040434	1.00663
686.444	22.6801	3.69067	-0.00407165	1.01271
687.133	22.6422	3.69669	-0.00397664	1.01861
687.821	22.5853	3.70217	-0.00398439	1.02553
688.51	22.4828	3.70718	-0.00402317	1.03604
689.198	22.2958	3.71265	-0.00406629	1.04229
689.887	22.2906	3.71895	-0.00397188	1.04874
690.5752	22.2511	3.72184	-0.00397998	1.05547
691.264	22.1144	3.73046	-0.00405757	1.06455
691.952	21.9901	3.732152	-0.004026711	1.07112
692.641	21.9439	3.74019	-0.00403494	1.07728
693.3291	21.8714	3.746707	-0.00404862	1.08531
694.018	14.4318	3.74984	-0.00409483	1.09776
694.706	14.7502	3.75844	-0.004081693	1.09875
695.395	15.2826	3.76149	-0.00400034	1.10093
696.083	15.46587	3.76676	-0.00405986	1.10261
696.771	15.8332	3.77323	-0.00404038	1.10525
697.46	15.8814	3.77924	-0.00402656	1.10947
698.148	15.8835	3.78626	-0.00397122	1.11566
698.837	15.8481	3.79039	-0.00400141	1.12069
699.525	15.8186	3.79598	-0.00407116	1.12682
700.214	15.7703	3.80129	-0.00399453	1.134282
700.902	15.7113	3.80665	-0.00402406	1.14105
701.591	15.6795	3.81208	-0.00407213	1.1472
702.2793	15.6183	3.81715	-0.00407448	1.1541
702.968	15.54	3.82372	-0.0040491	1.16135
703.656	15.4282	3.83014	-0.00400094	1.17268
704.345	15.3948	3.83259	-0.00401774	1.17669
705.0332	15.4429	3.83994	-0.00403323	1.18335
705.722	15.2414	3.84487	-0.00405504	1.1923
706.41	15.1809	3.85106	-0.00394932	1.19802
707.099	15.0576	3.85584	-0.00401868	1.20553
707.787	14.8465	3.8621	-0.004052096	1.213745
708.476	14.5665	3.86619	-0.00400846	1.22429
709.164	14.0819	3.87219	-0.00402465	1.23627
709.853	13.75	3.87922	-0.00397923	1.24769
710.541	13.6126	3.88437	-0.00406992	1.25553
711.229	13.2815	3.88934	-0.004071	1.26561
711.918	13.0785	3.89469	-0.0039918	1.27484
712.606	12.7779	3.90128	-0.00401853	1.28394
713.295	12.455	3.9059	-0.00406963	1.29422
713.9834	12.1924	3.910948	-0.00409053	1.30373
714.672	11.7867	3.91715	-0.00405378	1.31797
715.36	11.448	3.92127	-0.00400054	1.33101
716.049	11.338	3.927717	-0.00409592	1.33502
716.7373	11.185	3.93309	-0.00405131	1.3421
717.426	10.871	3.939853	-0.00405646	1.35268
718.114	10.4048	3.94312	-0.00396847	1.36626
718.803	10.3036	3.95029	-0.00401544	1.37283
719.491	9.98718	3.95472	-0.00407731	1.38342
720.18	9.75923	3.9604	-0.00405569	1.39234
720.868	9.44414	3.96604	-0.00403561	1.40255
721.557	8.91674	3.97245	-0.00399294	1.4195
722.245	8.55019	3.97787	-0.004063068	1.42984
722.934	0.012241	3.97932	-0.00407062	7.49865