File: shares/flx_lsms_hydrogen/EXPERIMENTAL_DATA/LABO_SOETE/WP1_TENSILE/H2_HC1/MTS/HYARR13/specimen.dat
MTS793|MPT|ENU|1|2|.|/|:|1|0|0|A

Data Acquisition						Time:	15.0205	s	1/27/2022 11:36:06 AM
Time	ESH B Force	ESH B Displacement	Analog In 2	Analog In 1
s	kN	mm	V	V
0.0332031	0.365801	3.99968	-0.0170232	-0.002015034
1.0293	0.38297	4.00165	-0.01709279	-0.00255021
2.02539	0.403703	4.00395	-0.0170431	-0.00212041
3.02148	0.445379	4.00663	-0.01705464	-0.00212897
4.01758	0.45937	4.00792	-0.0170573	-0.002058137
5.01367	0.487094	4.01193	-0.0170428	-0.00204426
6.00977	0.505505	4.01275	-0.017046	-0.00247553
7.00586	0.520679	4.01587	-0.016964	-0.00184575
8.00195	0.551958	4.0178	-0.0170493	-0.00211376
8.99805	0.56564	4.01979	-0.01703771	-0.00205049
9.99414	0.58593	4.02209	-0.0170487	-0.00202483
10.9902	0.627469	4.024744	-0.0167837	-0.00225743
11.9863	0.632221	4.02681	-0.0167097	-0.00209261
12.9824	0.666955	4.02942	-0.0167508	-0.00210115
13.9785	0.695664	4.03105	-0.0167597	-0.00243025
14.9746	0.706094	4.03249	-0.0167019	-0.00199919
15.9707	0.767498	4.03641	-0.0164499	-0.00230526
16.9668	0.781295	4.03835	-0.0164014	-0.00209614
17.9629	0.814421	4.04019	-0.0164499	-0.00224976
18.959	0.876902	4.04316	-0.0161708	-0.00244401
19.9551	0.877292	4.04465	-0.01609358	-0.00225348
20.9512	0.939365	4.04714	-0.0161952	-0.002284
21.9473	0.971288	4.04941	-0.0160972	-0.00211059
22.9434	0.992342	4.05143	-0.0158068	-0.00226543
23.9395	1.06001	4.05455	-0.01582942	-0.0025065
24.9355	1.07976	4.0557	-0.0155261	-0.00227644
25.9316	1.14304	4.05818	-0.0155668	-0.00253582
26.9277	1.20882	4.061	-0.0152021	-0.00209414
27.9238	1.2175	4.06286	-0.015277	-0.00228567
28.9199	1.29177	4.06484	-0.0153538	-0.00248902
29.916	1.32154	4.06724	-0.0149652	-0.00228768
30.9121	1.34545	4.06854	-0.0149861	-0.00259381
31.9082	1.43524	4.07248	-0.014625	-0.00212632
32.9043	1.45724	4.0737	-0.0146638	-0.0022963
33.9004	1.51369	4.07608	-0.0147265	-0.00250354
34.8965	1.58228	4.07904	-0.0143179	-0.00229257
35.8926	1.5803	4.08062	-0.0143788	-0.00251633
36.8887	1.69064	4.08347	-0.0140696	-0.00223044
37.8848	1.72447	4.08533	-0.0140671	-0.00224614
38.8809	1.75134	4.08673	-0.0141312	-0.00253051
39.877	1.85454	4.09005	-0.013844	-0.00222349
40.873	1.90975	4.09208	-0.0134647	-0.0025164
41.8691	1.93529	4.094264	-0.0134238	-0.00221179
42.8652	2.01218	4.09681	-0.0133793	-0.00226446
43.8613	2.020407	4.09815	-0.0130977	-0.0025374
44.8574	2.13112	4.10169	-0.012763	-0.00227593
45.8535	2.30821	4.10316	-0.0125073	-0.00252789
46.8496	2.23	4.10545	-0.0127325	-0.00222993
47.8457	2.32797	4.10848	-0.0127455	-0.00225863
48.8418	2.40509	4.110435	-0.0122215	-0.00254746
49.8379	2.38096	4.1124	-0.0121651	-0.00229845
50.834	2.45815	4.11459	-0.0122097	-0.002540526
51.8301	2.46591	4.116096	-0.0121818	-0.00224854
52.8262	2.58009	4.11863	-0.01186547	-0.00218007
53.8223	2.61554	4.12107	-0.011991	-0.00254527
54.8184	2.646647	4.123003	-0.0118744	-0.00227868
55.8145	2.78763	4.12532	-0.0116487	-0.00244963
56.8105	2.84328	4.12823	-0.0112471	-0.00230173
57.8066	2.93735	4.13017	-0.0112837	-0.0021666
58.8027	2.9592	4.13267	-0.0110987	-0.00258302
59.7988	2.9656	4.13386	-0.0109828	-0.00227908
60.7949	3.08598	4.13686	-0.0107682	-0.0023062
61.791	3.14588	4.13932	-0.0107911	-0.00237057
62.7871	3.18008	4.13983	-0.0107155	-0.00212589
63.7832	3.30336	4.143487	-0.0104288	-0.00255144
64.7793	3.31958	4.14558	-0.0104533	-0.00228547
65.7754	3.39915	4.1486	-0.0101074	-0.00227245
66.7715	3.47504	4.15033	-0.009800991	-0.00238413
67.7676	3.48762	4.15226	-0.0098524	-0.002115119
68.7637	3.61112	4.15524	-0.00958694	-0.0025293
69.7598	3.67719	4.157	-0.0092287	-0.00235135
70.7559	3.72604	4.15883	-0.00920292	-0.00202929
71.752	3.84882	4.161006	-0.00901065	-0.00215783
72.748	3.860678	4.16331	-0.00891772	-0.00215252
73.7441	3.97099	4.16595	-0.008554304	-0.00257671
74.7402	4.03284	4.168	-0.00825268	-0.00238994
75.7363	4.05182	4.17013	-0.00819457	-0.00220637
76.7324	4.19654	4.173295	-0.0082384	-0.00240831
77.7285	4.25015	4.17448	-0.00788982	-0.00208359
78.7246	4.3139	4.17713	-0.00796307	-0.00255312
79.7207	4.41023	4.1797	-0.00759907	-0.00237386
80.7168	4.41914	4.18148	-0.00762307	-0.00221142
81.7129	4.5278	4.18332	-0.007346666	-0.00235682
82.709	4.59064	4.18598	-0.006963294	-0.00210691
83.7051	4.61749	4.18742	-0.00708384	-0.00255554
84.7012	4.7915	4.19048	-0.00669369	-0.00235701
85.6973	4.84016	4.19286	-0.00637946	-0.002288118
86.6934	4.90588	4.19499	-0.0063983	-0.00210107
87.6895	5.09993	4.1993	-0.0057759	-0.00215326
88.6855	5.00831	4.19961	-0.00617451	-0.00251558
89.6816	5.20865	4.20106	-0.00583531	-0.002296682
90.6777	5.20442	4.20428	-0.0058152	-0.00247173
91.6738	5.25528	4.20556	-0.00550386	-0.00227487
92.6699	5.43991	4.20863	-0.00521949	-0.00225266
93.666	5.48896	4.21077	-0.00500405	-0.00250028
94.6621	5.54957	4.21297	-0.00493927	-0.0023264
95.6582	5.64921	4.21485	-0.00466906	-0.002548412
96.6543	5.679554	4.21683	-0.0045984	-0.002128904
97.6504	5.81452	4.21998	-0.00438525	-0.00245089
98.6465	5.88709	4.22182	-0.00401361	-0.00224224
99.6426	5.9454	4.22399	-0.004078689	-0.00240491
100.639	6.12288	4.22617	-0.00368033	-0.00241973
101.635	6.15052	4.22853	-0.00337189	-0.00219747
102.631	6.26039	4.23099	-0.00340221	-0.00241204
103.627	6.36842	4.23337	-0.00277698	-0.00211905
104.623	6.399868	4.23506	-0.00287094	-0.00253124
105.619	6.54076	4.23774	-0.00247066	-0.00233305
106.615	6.61385	4.2396	-0.00252345	-0.002608187
107.611	6.68122	4.2415	-0.00210707	-0.00240158
108.607	6.85748	4.245	-0.00158203	-0.00220253
109.604	6.8809	4.24658	-0.00162793	-0.00252986
110.6	6.98397	4.24945	-0.00161489	-0.002526988
111.5957	7.080812	4.25113	-0.00137111	-0.00232253
112.5918	7.1217	4.25314	-0.00101329	-0.0021985
113.588	7.27721	4.25529	-0.0007027511	-0.00239943
114.584	7.36378	4.25827	-0.000642839	-0.00188009
115.58	7.44967	4.2598	-0.000381729	-0.002536217
116.576	7.59921	4.26235	-0.000104454	-0.00227232
117.572	7.65393	4.26421	0.000140075	-0.00248707
118.568	7.78824	4.26672	0.000161567	-0.00200851
119.564	7.86662	4.26872	0.000462781	-0.002316
120.561	7.90242	4.27116	0.000459365	-0.00251784
121.557	8.09715	4.273582	0.00114477	-0.00229967
122.553	8.16127	4.275383	0.00135772	-0.00258856
123.549	8.231225	4.27717	0.0014514	-0.002175495
124.545	8.366045	4.28086	0.00163161	-0.00217523
125.541	8.39516	4.28195	0.001714747	-0.00196062
126.537	8.55089	4.28479	0.00193506	-0.0024767
127.5332	8.617487	4.28722	0.00234409	-0.00235664
128.5293	8.6642	4.28848	0.00240623	-0.00219041
129.525	8.88135	4.29202	0.0029283	-0.00243702
130.521	8.92923	4.29419	0.00299261	-0.00211435
131.518	9.02537	4.295609	0.003205525	-0.00251495
132.514	9.17948	4.29793	0.00357321	-0.00227265
133.51	9.23397	4.300139	0.00382972	-0.00240265
134.506	9.3867	4.3031	0.00410222	-0.00226559
135.502	9.46558	4.3047	0.00440068	-0.00220245
136.498	9.52897	4.30669	0.00435778	-0.00250532
137.494	9.74582	4.309742	0.00501179	-0.0022615
138.49	9.77478	4.31176	0.00496198	-0.00252935
139.486	9.89	4.31421	0.00536467	-0.00221637
140.482	10.003	4.31596	0.00558598	-0.00229345
141.479	10.0471	4.3174	0.005531549	-0.00256653
142.475	10.2151	4.32046	0.00595372	-0.00228736
143.4707	10.2777	4.322413	0.00624778	-0.00258202
144.4668	10.36928	4.324688	0.00661815	-0.00215899
145.463	10.5746	4.32789	0.00691611	-0.00227396
146.459	10.6079	4.329587	0.00717631	-0.00250504
147.455	10.7488	4.33169	0.00749859	-0.00231272
148.451	10.8722	4.33399	0.00777357	-0.00253051
149.447	10.9085	4.335959	0.00782964	-0.00212031
150.443	11.1044	4.33851	0.00839285	-0.00238707
151.439	11.22263	4.34004	0.00837086	-0.00237772
152.436	11.3052	4.34277	0.00869955	-0.00239024
153.432	11.4713	4.345624	0.009256	-0.00253633
154.428	11.5194	4.34785	0.00932498	-0.00218186
155.424	11.6433	4.34971	0.00957918	-0.00245457
156.42	11.7658	4.35211	0.0099524	-0.00212518
157.416	11.8106	4.35326	0.00987064	-0.00260575
158.412	12.0079	4.35669	0.0105014	-0.00233079
159.4082	12.093	4.35838	0.0105055	-0.00249755
160.4043	12.2218	4.36079	0.0109196	-0.00218831
161.4	12.37212	4.3628	0.0112373	-0.00234362
162.396	12.4235	4.36564	0.0115177	-0.00240803
163.393	12.6084	4.36742	0.0118122	-0.002450054
164.389	12.6888	4.36927	0.0121063	-0.00246035
165.385	12.7625	4.37173	0.0121445	-0.00228032
166.381	12.9821	4.37454	0.0127325	-0.00236906
167.377	13.0364	4.37673	0.0130492	-0.00225352
168.373	13.1583	4.37853	0.0129864	-0.00252891
169.369	13.2717	4.38157	0.0136335	-0.00239176
170.365	13.316	4.38351	0.0135466	-0.002595502
171.361	13.5083	4.38573	0.014268	-0.002191613
172.357	13.5862	4.38816	0.014191	-0.00239536
173.354	13.6659	4.38959	0.0145223	-0.00214809
174.35	13.8588	4.39298	0.0150366	-0.00256592
175.3457	13.8948	4.39455	0.015109	-0.00226154
176.3418	14.0557	4.396245	0.0153681	-0.00258673
177.338	14.172	4.39947	0.0158409	-0.00217753
178.334	14.2264	4.40076	0.0160787	-0.00241172
179.33	14.4282	4.40384	0.016658	-0.00229471
180.326	14.5347	4.405396	0.01692031	-0.00250159
181.322	14.6597	4.40787	0.017259	-0.00247273
182.318	14.79558	4.4099	0.0175863	-0.002239712
183.314	14.8265	4.41204	0.0175729	-0.002451374
184.311	14.9838	4.41468	0.0181659	-0.0021739
185.307	15.0977	4.417151	0.0183939	-0.00260219
186.303	15.1355	4.41847	0.01845051	-0.00229002
187.299	15.3135	4.42169	0.0190253	-0.00252459
188.295	15.3689	4.42392	0.0191064	-0.00224907
189.291	15.5239	4.42494	0.0196184	-0.002357441
190.287	15.6429	4.42813	0.019884	-0.00251294
191.2832	15.7098	4.43006	0.0202561	-0.0023603
192.2793	15.9165	4.433	0.0209143	-0.00262625
193.275	16.0067	4.43506	0.0213011	-0.00227331
194.271	16.0833	4.43673	0.0215433	-0.00250641
195.268	16.2504	4.43964	0.0218866	-0.00234078
196.264	16.3197	4.44189	0.02219082	-0.00254192
197.26	16.47	4.44371	0.0227536	-0.00255105
198.256	16.5653	4.445713	0.023114	-0.00225521
199.252	16.63933	4.44796	0.0233958	-0.00250381
200.248	16.828	4.45022	0.0237514	-0.00226051
201.244	16.8717	4.45236	0.0242271	-0.00262984
202.24	16.9921	4.45558	0.0245562	-0.0024399
203.236	17.1016	4.45692	0.0251669	-0.00235549
204.232	17.182	4.45858	0.0258135	-0.0024716
205.229	17.3533	4.46136	0.0261904	-0.00223852
206.225	17.4465	4.46438	0.0267242	-0.00262867
207.2207	17.5091	4.466	0.0270317	-0.00239466
208.2168	17.6683	4.46909	0.0279169	-0.00250477
209.213	17.7042	4.47045	0.0282634	-0.0023778
210.209	17.865	4.47204	0.0287982	-0.00229639
211.205	17.9698	4.475018	0.0296475	-0.00266305
212.201	18.0125	4.47715	0.0304362	-0.00232332
213.197	18.174	4.47966	0.0309952	-0.0026399
214.193	18.2063	4.48218	0.031952	-0.002337442
215.189	18.2919	4.48401	0.0325011	-0.00243096
216.186	18.37944	4.48566	0.033322	-0.00262206
217.182	18.4023	4.4889	0.03402	-0.00239508
218.178	18.56093	4.49142	0.0348616	-0.0026379
219.174	18.6325	4.493012	0.0359506	-0.00230035
220.17	18.6834	4.49517	0.0367485	-0.00242229
221.166	18.7973	4.497	0.037938	-0.00252152
222.162	18.9553	4.49897	0.0405562	-0.00241294
223.1582	18.9035	4.50257	0.0413492	-0.00270852
224.1543	18.9283	4.503788	0.0424035	-0.00227289
225.15	18.9619	4.50591	0.0428706	-0.00250923
226.146	19.105	4.50832	0.0443983	-0.0025072
227.143	19.0965	4.51108	0.0456777	-0.00240888
228.139	19.1729	4.51324	0.04656386	-0.00266978
229.135	19.2256	4.51508	0.0480996	-0.00230035
230.131	19.2332	4.51805	0.0489475	-0.002541529
231.127	19.3468	4.51995	0.0505641	-0.0024331
232.123	19.353	4.52263	0.0523245	-0.00250497
233.119	19.3951	4.5245	0.0531851	-0.00260014
234.115	19.4738	4.52708	0.0555044	-0.0022703
235.111	19.4544	4.52824	0.0566376	-0.00257074
236.107	19.5418	4.53114	0.0581409	-0.00233384
237.104	19.5401	4.53298	0.0597784	-0.00232322
238.1	19.5847	4.53542	0.0609622	-0.0023506
239.0957	19.6767	4.53829	0.063112	-0.0022646
240.0918	19.6644	4.539928	0.064619	-0.002534067
241.088	19.7504	4.54222	0.0663831	-0.002400063
242.084	19.738	4.5443	0.0681959	-0.00242611
243.08	19.7512	4.546917	0.0698666	-0.00267247
244.076	19.8439	4.54938	0.0717121	-0.00223897
245.072	19.825	4.551311	0.0731523	-0.00250862
246.068	19.8683	4.55332	0.0744378	-0.00263967
247.064	19.91317	4.5552	0.0762145	-0.00240371
248.061	19.9296	4.55785	0.0779438	-0.00274681
249.057	20.0616	4.55456	0.0799543	-0.00230186
250.053	19.9489	4.56264	0.0829465	-0.002405053
251.049	19.99946	4.56309	0.0837971	-0.00266946
252.045	20.06889	4.56743	0.0860083	-0.00238039
253.041	20.0778	4.56869	0.0874271	-0.00273119
254.037	20.1433	4.57129	0.08915925	-0.00233296
255.0332	20.1494	4.57329	0.0909237	-0.00239495
256.0293	20.2021	4.57551	0.0923277	-0.00269124
257.025	20.2793	4.578649	0.0943038	-0.00217989
258.021	20.2362	4.57983	0.0959949	-0.00268014
259.018	20.3065	4.58302	0.0976002	-0.00233036
260.014	20.3054	4.58429	0.0997112	-0.002417692
261.01	20.3059	4.58706	0.10112	-0.0026447
262.006	20.3843	4.58958	0.102673	-0.00236733
263.002	20.39838	4.59198	0.104847	-0.00269244
263.998	20.47086	4.59491	0.106998	-0.00227492
264.994	20.48901	4.59565	0.109261	-0.00249549
265.99	20.5044	4.60032	0.110938	-0.00255403
266.986	20.4912	4.5995	0.1121375	-0.002464544
267.982	20.4818	4.6017	0.1137286	-0.00266293
268.979	20.5619	4.60537	0.115287	-0.00232087
269.975	20.6352	4.60673	0.117329	-0.00253257
270.9707	20.6041	4.609261	0.119198	-0.0023317
271.9668	20.6797	4.61176	0.121014	-0.00256732
272.963	20.65	4.61409	0.123187	-0.00247774
273.959	20.6768	4.61722	0.124681	-0.002372873
274.955	20.7265	4.6184	0.12648	-0.00247633
275.951	20.6936	4.62075	0.128086	-0.00229715
276.947	20.7711	4.62299	0.129838	-0.00261103
277.943	20.77733	4.62463	0.132008	-0.00240195
278.939	20.8472	4.62701	0.133822	-0.00268413
279.936	20.8276	4.62924	0.13566	-0.00225007
280.932	20.79995	4.63157	0.137114	-0.00253566
281.928	20.8704	4.633884	0.1390269	-0.0022393
282.924	20.90295	4.63599	0.1411082	-0.00267765
283.92	20.9203	4.63872	0.142763	-0.00241806
284.916	20.9644	4.64072	0.144804	-0.00258684
285.912	20.939	4.64259	0.146914	-0.002377233
286.9082	20.9997	4.64638	0.148816	-0.002421034
287.9043	21.0399	4.64803	0.150869	-0.00254904
288.9	21.0023	4.64912	0.152571	-0.00244535
289.896	21.0434	4.651619	0.154603	-0.00259338
290.893	21.0363	4.6537	0.156539	-0.00224326
291.889	21.1012	4.65688	0.1583713	-0.00252601
292.885	21.1315	4.65921	0.160513	-0.00219783
293.881	21.10495	4.66117	0.161918	-0.0026789
294.877	21.1466	4.66349	0.164219	-0.0024205
295.873	21.1275	4.665091	0.165967	-0.00253464
296.869	21.2141	4.66789	0.1678603	-0.00244209
297.865	21.19837	4.6693	0.170012	-0.00237512
298.861	21.1831	4.67172	0.171444	-0.00261686
299.857	21.2603	4.67452	0.173928	-0.00242949
300.854	21.2563	4.67572	0.176007	-0.00269008
301.85	21.3096	4.679615	0.178017	-0.00230986
302.8457	21.2919	4.68092	0.179977	-0.00254019
303.8418	21.2723	4.68224	0.181927	-0.00222471
304.838	21.3349	4.68634	0.18396	-0.00261467
305.834	21.34362	4.688169	0.185779	-0.00243203
306.83	21.3777	4.690455	0.187344	-0.0024529
307.826	21.3979	4.69235	0.189479	-0.00240464
308.822	21.3503	4.693223	0.191296	-0.00231527
309.818	21.4348	4.69768	0.193457	-0.00257827
310.814	21.4269	4.698523	0.1952695	-0.00241192
311.811	21.4597	4.70165	0.197011	-0.00266941
312.807	21.4619	4.70377	0.199523	-0.00224454
313.803	21.4377	4.70462	0.201379	-0.00253503
314.799	21.5629	4.70899	0.203736	-0.00229908
315.795	21.51453	4.71012	0.2058509	-0.00259091
316.791	21.5342	4.712986	0.207731	-0.00251916
317.787	21.5296	4.71483	0.209926	-0.00235831
318.7832	21.533	4.71682	0.211735	-0.00245261
319.7793	21.59812	4.720902	0.2135957	-0.00224971
320.775	21.5499	4.7212	0.215278	-0.00265824
321.771	21.567	4.72341	0.2169572	-0.002397113
322.768	21.62031	4.72618	0.219307	-0.00258234
323.764	21.6068	4.72792	0.221473	-0.00235759
324.76	21.6743	4.73204	0.223273	-0.002393302
325.756	21.6306	4.73217	0.225322	-0.00265304
326.752	21.5974	4.73451	0.227301	-0.00237055
327.748	21.68136	4.73824	0.229701	-0.00268948
328.744	21.6473	4.73875	0.23132	-0.00228329
329.74	21.7571	4.74324	0.233085	-0.002441708
330.736	21.6934	4.74357	0.235898	-0.00262765
331.732	21.6599	4.74525	0.237705	-0.0024024
332.729	21.751	4.74958	0.239767	-0.00272877
333.725	21.7567	4.750289	0.24204	-0.00226596
334.7207	21.7622	4.75369	0.243814	-0.00251074
335.7168	21.7339	4.7557	0.2459009	-0.00257311
336.713	21.695	4.7567	0.2477695	-0.00242085
337.709	21.8267	4.76065	0.250182	-0.00273355
338.705	21.7972	4.76162	0.252377	-0.00227983
339.701	21.7943	4.7647	0.253836	-0.00254062
340.697	21.7901	4.76626	0.256357	-0.00240283
341.693	21.7691	4.76717	0.258443	-0.00258299
342.689	21.8718	4.772788	0.260597	-0.00264587
343.686	21.8316	4.77261	0.262455	-0.00230485
344.682	21.8374	4.77519	0.264236	-0.002592474
345.678	21.8632	4.77806	0.267109	-0.00199581
346.674	21.8469	4.77943	0.268529	-0.0027041
347.67	21.9502	4.78283	0.271299	-0.002457404
348.666	21.8498	4.78372	0.273378	-0.0025883
349.662	21.8823	4.786624	0.275332	-0.00239476
350.6582	21.915	4.78925	0.277693	-0.00239857
351.6543	21.8956	4.79073	0.279534	-0.00263776
352.65	21.9622	4.79406	0.281394	-0.00240817
353.646	21.8826	4.79425	0.283381	-0.00273775
354.643	21.8697	4.79581	0.2851502	-0.00234419
355.639	21.9931	4.80116	0.287732	-0.00253515
356.635	21.9015	4.80102	0.289349	-0.00258309
357.631	22.0157	4.8051	0.291467	-0.002459574
358.627	21.9506	4.80654	0.293829	-0.00275228
359.623	21.95402	4.80784	0.295402	-0.00231033
360.619	22.0297	4.81291	0.298365	-0.0025579
361.615	21.9504	4.81217	0.300223	-0.00244688
362.611	22.0609	4.81652	0.302007	-0.00243179
363.607	21.9899	4.81781	0.304544	-0.00268642
364.604	21.9595	4.81968	0.306414	-0.00227002
365.6	22.0925	4.82394	0.309247	-0.00244327
366.5957	21.9648	4.82363	0.31095	-0.00262791
367.5918	22.078	4.82769	0.312788	-0.002410911
368.588	22.0311	4.82934	0.31561	-0.00267307
369.584	22.0007	4.82993	0.317206	-0.00227048
370.58	22.1074	4.83508	0.319546	-0.00237972
371.576	22.0119	4.83428	0.32133	-0.00261235
372.572	22.0743	4.83852	0.3231034	-0.00238286
373.568	22.0777	4.84054	0.325883	-0.00258951
374.564	22.0406	4.841382	0.327476	-0.00242182
375.561	22.1591	4.84655	0.330229	-0.00229474
376.557	22.0486	4.84636	0.332539	-0.00260633
377.553	22.1309	4.84978	0.334253	-0.00239351
378.549	22.1016	4.851438	0.337235	-0.00239388
379.545	22.0602	4.852181	0.338941	-0.002489046
380.541	22.161	4.85785	0.340932	-0.00220997
381.537	22.05868	4.85798	0.343011	-0.00265038
382.5332	22.061	4.85924	0.344622	-0.00246346
383.5293	22.1501	4.86379	0.347665	-0.00234131
384.525	22.08238	4.86371	0.34948	-0.00249166
385.521	22.2257	4.86875	0.351648	-0.00222471
386.518	22.10247	4.8694	0.354344	-0.00265129
387.514	22.0951	4.87151	0.355902	-0.002456852
388.51	22.171	4.87516	0.359023	-0.0023418
389.506	22.1069	4.874733	0.360752	-0.0024701
390.502	22.1989	4.87994	0.362957	-0.00224999
391.498	22.33671	4.88122	0.380213	-0.002664289
392.494	22.1244	4.88241	0.385789	-0.00237969
393.49	22.0938	4.88871	0.387648	-0.00253958
394.486	21.98061	4.8854	0.389182	-0.00243817
395.482	21.9402	4.88628	0.389818	-0.00231255
396.479	22.0128	4.8911	0.390613	-0.00262305
397.475	21.9768	4.89349	0.391287	-0.00238095
398.4707	21.95064	4.89604	0.391918	-0.002574347
399.4668	21.9678	4.89518	0.392458	-0.00236821
400.463	21.9753	4.9013	0.393106	-0.00232024
401.459	22.0694	4.90198	0.393955	-0.00264357
402.455	22.0787	4.90208	0.395153	-0.00238186
403.451	22.1022	4.9086	0.396043	-0.00263488
404.447	22.0887	4.91002	0.397121	-0.00227332
405.443	22.06291	4.912199	0.398009	-0.002429896
406.439	22.1329	4.91391	0.399203	-0.00249888
407.436	22.1078	4.914957	0.400389	-0.00244157
408.432	22.2539	4.92018	0.402303	-0.00262969
409.428	22.1895	4.92019	0.404121	-0.00228227
410.424	22.7431	4.93147	0.405824	-0.0025954
411.42	22.165	4.92854	0.413943	-0.0022371
412.416	22.0753	4.92725	0.415341	-0.00261709
413.412	22.0977	4.93226	0.416593	-0.002450949
414.4082	22.0944	4.93206	0.417804	-0.00250716
415.4043	22.0915	4.93389	0.418764	-0.00242821
416.4	22.153	4.93697	0.420587	-0.00240105
417.396	22.1513	4.938139	0.421811	-0.002606781
418.393	22.3012	4.94249	0.4236452	-0.00242454
419.389	22.2057	4.94329	0.426085	-0.00271447
420.385	22.2313	4.9455	0.427959	-0.00227369
421.381	22.2529	4.94865	0.4305543	-0.00256511
422.377	22.2125	4.94919	0.432509	-0.00225961
423.373	22.2805	4.95363	0.434544	-0.00262704
424.369	22.2024	4.95446	0.436818	-0.0024333
425.365	22.177	4.9558	0.438244	-0.00266747
426.361	22.2866	4.95972	0.441671	-0.00233865
427.357	22.2251	4.961134	0.443728	-0.0025395
428.354	22.2755	4.9655	0.445887	-0.002459628
429.35	22.2085	4.96592	0.448292	-0.00258701
430.3457	22.168	4.96616	0.449816	-0.00258098
431.3418	22.2613	4.97169	0.452644	-0.00234912
432.338	22.1939	4.97096	0.454355	-0.00253912
433.334	22.2802	4.97554	0.456842	-0.002261111
434.33	22.2112	4.97686	0.459144	-0.0026269
435.326	22.1772	4.9786	0.461132	-0.002420038
436.322	22.2642	4.98289	0.463793	-0.00260373
437.318	22.1952	4.98297	0.465564	-0.00228973
438.314	22.2879	4.98726	0.4678731	-0.00240909
439.311	22.2031	4.98819	0.470369	-0.00253116
440.307	22.1469	4.98886	0.472149	-0.00244702
441.303	22.276	4.99434	0.4749	-0.00262232
442.299	22.1945	4.99401	0.476834	-0.00233514
443.295	22.2939	4.99824	0.478813	-0.00253172
444.291	22.2285	4.999589	0.481973	-0.00227607
445.287	22.1728	5.00065	0.483406	-0.0027035
446.2832	22.2689	5.00464	0.48629	-0.00239737
447.2793	22.1871	5.00562	0.488242	-0.002735903
448.275	22.2668	5.00883	0.489851	-0.00231587
449.271	22.2037	5.01032	0.492796	-0.00258554
450.268	22.1608	5.01152	0.494444	-0.00236913
451.264	22.2796	5.016746	0.49706	-0.00269275
452.26	22.1832	5.01704	0.498884	-0.00251177
453.256	22.2414	5.0202	0.500854	-0.00253385
454.252	22.221	5.02226	0.503526	-0.00244071
455.248	22.1626	5.02285	0.505333	-0.00248653
456.244	22.2882	5.02751	0.508334	-0.00264956
457.24	22.1717	5.027154	0.510931	-0.0025917
458.236	22.2255	5.031321	0.512674	-0.00265344
459.232	22.2088	5.03324	0.515207	-0.00235285
460.229	22.1771	5.03424	0.516922	-0.00258359
461.225	22.2641	5.03907	0.519196	-0.00230573
462.2207	22.1706	5.03918	0.521488	-0.00271128
463.2168	22.2076	5.04183	0.523049	-0.00245758
464.213	22.224	5.04484	0.526972	-0.0027839
465.209	22.1347	5.046237	0.529007	-0.00233851
466.205	22.2317	5.05089	0.530711	-0.00259082
467.201	22.1676	5.05029	0.532834	-0.00247848
468.197	22.25609	5.05143	0.534701	-0.00256992
469.193	22.1004	5.05427	0.547232	-0.00268611
470.189	21.9574	5.0566	0.549752	-0.00235343
471.186	22.0811	5.06124	0.550925	-0.00265154
472.182	22.1155	5.06933	0.559606	-0.00230089
473.178	22.0375	5.0653	0.561055	-0.0027158
474.174	22.3151	5.065105	0.563746	-0.00250302
475.17	21.9651	5.06781	0.56649	-0.00251747
476.166	22.2178	5.07527	0.569279	-0.00250686
477.162	22.1737	5.08252	0.5720008	-0.00236332
478.1582	22.085	5.0816	0.5732882	-0.0027354
479.1543	22.128	5.07598	0.574767	-0.00247939
480.15	22.0774	5.085506	0.575854	-0.00281235
481.146	21.9884	5.08488	0.57659	-0.00238395
482.143	22.0677	5.082787	0.577609	-0.0025624
483.139	21.9834	5.08595	0.578101	-0.00262836
484.135	22.39447	5.088872	0.583572	-0.00257545
485.131	22.1032	5.08708	0.587445	-0.00273763
486.127	22.0253	5.09325	0.588766	-0.00235249
487.123	21.9973	5.08711	0.590232	-0.00264257
488.119	21.9939	5.09699	0.5911473	-0.00232982
489.115	22.05143	5.098515	0.592908	-0.00282731
490.111	21.9933	5.09861	0.594518	-0.00255469
491.107	22.0754	5.10326	0.595655	-0.002617049
492.104	22.0392	5.10311	0.5977	-0.00246004
493.1	21.9745	5.10968	0.5988391	-0.00241409
494.0957	22.1042	5.11634	0.600205	-0.00276181
495.0918	22.0272	5.11117	0.601464	-0.002510618
496.088	22.0357	5.11614	0.602489	-0.00278243
497.084	22.02702	5.11836	0.603728	-0.00234978
498.08	21.9819	5.1197	0.604481	-0.00261159
499.076	22.1998	5.12426	0.608027	-0.002501002
500.072	22.1234	5.12563	0.6106416	-0.00260756
501.068	22.0163	5.12695	0.612177	-0.00268762
502.064	22.0653	5.12829	0.614326	-0.0023765
503.061	21.9991	5.1296	0.615826	-0.00258738
504.057	22.1295	5.133718	0.617757	-0.00229584
505.053	22.2142	5.13796	0.620959	-0.00272674
506.049	22.13747	5.14204	0.6250329	-0.00251184
507.045	22.0164	5.1411	0.6272108	-0.002655
508.041	21.931	5.14174	0.628484	-0.0024763
509.037	22.04258	5.146769	0.630536	-0.00250214
510.0332	22.0121	5.14632	0.632077	-0.00274495
511.0293	22.0574	5.15055	0.63358	-0.00256132
512.025	22.0504	5.15211	0.635661	-0.00277461
513.021	22.0643	5.15425	0.637948	-0.00237485
514.018	22.0871	5.15804	0.63994	-0.00261881
515.014	22.0365	5.15781	0.641621	-0.00234761
516.01	22.152	5.16134	0.643573	-0.00276727
517.006	22.10397	5.16239	0.647035	-0.00246455
518.002	22.042	5.16371	0.649755	-0.00276245
518.998	22.0862	5.16896	0.652212	-0.00242474
519.994	22.0485	5.16989	0.654326	-0.00257193
520.99	22.0599	5.17238	0.656844	-0.0026004
521.986	22.05798	5.17405	0.659804	-0.00261055
522.982	22.0035	5.17581	0.662218	-0.002637631
523.979	22.1106	5.17995	0.665381	-0.00237528
524.975	22.00638	5.18047	0.668074	-0.00258986
525.9707	21.9527	5.18304	0.6696	-0.002368049
526.9668	21.9839	5.18563	0.671708	-0.002734514
527.963	21.9262	5.18657	0.673208	-0.00244881
528.959	22.0624	5.19114	0.675434	-0.002790153
529.955	22.0158	5.1931	0.67792	-0.002317691
530.951	21.9931	5.19472	0.679635	-0.00255414
531.947	21.9853	5.19735	0.682722	-0.002530688
532.943	21.9078	5.19769	0.6845094	-0.00258011
533.939	22.0332	5.20193	0.6865778	-0.00268725
534.936	21.9936	5.20245	0.689333	-0.00236266
535.932	22.0569	5.20438	0.692038	-0.00260076
536.928	21.9526	5.20807	0.694908	-0.002320437
537.924	21.9119	5.20991	0.696667	-0.00277452
538.92	22.0156	5.21354	0.699106	-0.0024856
539.916	21.953	5.21177	0.702153	-0.00257845
540.912	21.898	5.21576	0.703983	-0.00250643
541.9082	21.9039	5.22021	0.706529	-0.00238659
542.9043	21.9083	5.22027	0.707923	-0.0027583
543.9	21.9532	5.22473	0.710691	-0.0024499
544.896	21.8722	5.22566	0.712412	-0.00279633
545.893	21.8416	5.22664	0.722655	-0.002339209
546.889	21.6906	5.22861	0.723927	-0.00254149
547.885	21.6379	5.23325	0.724787	-0.002605686
548.881	21.73267	5.23678	0.725688	-0.00253152
549.877	21.6885	5.23763	0.726544	-0.00274779
550.873	21.6985	5.23862	0.727242	-0.00236012
551.869	21.8307	5.2419	0.73291	-0.00241241
552.865	21.71694	5.24223	0.7345528	-0.002320512
553.861	21.7601	5.24747	0.7354157	-0.00253015
554.857	21.7278	5.24857	0.736407	-0.00251035
555.854	21.7724	5.25111	0.738188	-0.00269241
556.85	21.8502	5.2531	0.741252	-0.0025234
557.8457	21.7348	5.2543	0.742469	-0.00255124
558.8418	21.8298	5.258985	0.743701	-0.00271
559.838	21.7877	5.258225	0.745544	-0.00259571
560.834	21.8241	5.26044	0.746992	-0.00280891
561.83	21.874	5.26566	0.75326	-0.00240224
562.826	21.7827	5.26527	0.755921	-0.00266286
563.822	21.7261	5.26963	0.757437	-0.00233299
564.818	21.7176	5.27012	0.758594	-0.00275077
565.814	21.7149	5.27218	0.759839	-0.0025044
566.811	21.8293	5.27512	0.76248	-0.00279991
567.807	21.8344	5.27679	0.765111	-0.00243508
568.803	21.85059	5.28197	0.767476	-0.002533
569.799	21.7565	5.28169	0.769633	-0.00267939
570.795	21.684	5.28509	0.777252	-0.00260141
571.791	21.58205	5.28713	0.778567	-0.00274442
572.787	21.5612	5.28841	0.779584	-0.00240535
573.7832	21.6763	5.29238	0.781004	-0.00239433
574.7793	21.6812	5.29266	0.782615	-0.00233788
575.775	21.6752	5.29518	0.78366	-0.00276219
576.771	21.7327	5.29824	0.786423	-0.002555619
577.768	21.7071	5.2991	0.787972	-0.002404
578.764	21.7481	5.30322	0.790423	-0.002280141
579.76	21.6836	5.3037	0.792615	-0.00222807
580.756	21.8293	5.30848	0.795229	-0.00252443
581.752	21.6636	5.31024	0.7990337	-0.00254403
582.748	21.6185	5.31009	0.800734	-0.00281146
583.744	21.6946	5.3151	0.802431	-0.00241797
584.74	21.6349	5.3147	0.803842	-0.00268538
585.736	21.6568	5.31772	0.805389	-0.00243238
586.732	21.70336	5.31983	0.808306	-0.00274362
587.729	21.6533	5.32118	0.810215	-0.00265787
588.725	21.8202	5.32605	0.813941	-0.00245318
589.7207	21.6097	5.32693	0.81695	-0.00264806
590.7168	21.554	5.32778	0.818464	-0.00215754
591.713	21.6145	5.33041	0.8227039	-0.00279147
592.709	21.5287	5.33275	0.824258	-0.00249878
593.705	21.7523	5.33989	0.830817	-0.00241179
594.701	21.53628	5.32907	0.834477	-0.0025684
595.697	21.3865	5.340107	0.835675	-0.00247316
596.693	21.4647	5.33724	0.836901	-0.00258788
597.689	21.4145	5.34504	0.837841	-0.00230676
598.686	21.4742	5.34823	0.83868	-0.002594139
599.682	21.4717	5.34861	0.839667	-0.00248208
600.678	21.4638	5.34995	0.840602	-0.00258442
601.674	21.5713	5.35401	0.843039	-0.00279364
602.67	21.5546	5.3558	0.844862	-0.00233437
603.666	21.6972	5.36014	0.847031	-0.00260144
604.662	21.54	5.35927	0.849756	-0.002388984
605.6582	21.5184	5.36144	0.851541	-0.00243592
606.6543	21.5664	5.36534	0.855224	-0.00261998
607.65	21.5154	5.36609	0.857323	-0.00270741
608.646	21.6173	5.3712	0.859711	-0.0027656
609.643	21.5182	5.37137	0.862306	-0.00246743
610.639	21.5248	5.37318	0.864054	-0.00267288
611.635	21.5847	5.3758	0.868666	-0.00246852
612.631	21.492	5.37544	0.871356	-0.00272974
613.627	21.4837	5.38267	0.873512	-0.00270959
614.623	21.442	5.38243	0.875154	-0.00243803
615.619	21.4638	5.384841	0.876919	-0.0026828
616.615	21.51141	5.388165	0.879305	-0.00237087
617.611	21.4655	5.38877	0.881349	-0.00276352
618.607	21.5566	5.39444	0.884092	-0.00255906
619.604	21.4445	5.39352	0.886277	-0.002589074
620.6	21.4073	5.39551	0.888054	-0.00260226
621.5957	21.4387	5.39896	0.890899	-0.00240927
622.5918	21.4022	5.3995	0.892625	-0.00280635
623.588	21.5204	5.40474	0.895273	-0.00250229
624.584	21.4194	5.4051	0.897491	-0.00285571
625.58	21.3698	5.40652	0.899085	-0.00238951
626.576	21.4168	5.41008	0.902433	-0.00262018
627.572	21.3646	5.41131	0.904588	-0.00255671
628.568	21.4998	5.41649	0.906987	-0.00267778
629.564	21.4206	5.42032	0.917364	-0.00267755
630.561	21.6342	5.41975	0.924832	-0.00242846
631.557	21.28763	5.42161	0.933667	-0.0026263
632.553	21.1765	5.42279	0.936117	-0.0024172
633.549	21.4196	5.429812	0.938874	-0.002815
634.545	21.2759	5.42948	0.942864	-0.00252258
635.541	21.2225	5.43585	0.943695	-0.00281492
636.537	21.2321	5.43084	0.945223	-0.002420207
637.5332	21.1921	5.4341	0.946445	-0.00262154
638.5293	21.1728	5.43637	0.947406	-0.00259425
639.525	21.1009	5.43309	0.947901	-0.00264546
640.521	21.1048	5.43974	0.948663	-0.00268864
641.518	21.0996	5.447381	0.949306	-0.00240177
642.514	21.0896	5.44034	0.950174	-0.00266829
643.51	21.1206	5.45031	0.950784	-0.00232875
644.506	21.1405	5.44653	0.951292	-0.00275538
645.502	21.1492	5.45245	0.952207	-0.00265546
646.498	21.2946	5.45654	0.954153	-0.002416691
647.494	21.18363	5.45298	0.956276	-0.00265236
648.49	21.254	5.46119	0.957347	-0.00237283
649.486	21.3047	5.458353	0.960699	-0.00272098
650.482	21.1692	5.46405	0.963218	-0.00263064
651.479	21.1626	5.46659	0.965086	-0.0023784
652.475	21.111	5.46669	0.966473	-0.00263639
653.4707	21.15081	5.47283	0.967849	-0.00238843
654.4668	21.1311	5.470726	0.968967	-0.00261775
655.463	21.1245	5.47381	0.969881	-0.00275369
656.459	21.2145	5.47807	0.972711	-0.00237652
657.455	21.2095	5.47805	0.975395	-0.0026353
658.451	21.2878	5.48545	0.978682	-0.002669354
659.447	21.1505	5.48465	0.981658	-0.00254299
660.443	21.14069	5.48466	0.984709	-0.00278184
661.439	21.2502	5.49262	0.989401	-0.00244249
662.436	21.08552	5.49315	0.993102	-0.00240079
663.432	21.2901	5.49708	1.00061	-0.00273837
664.428	20.8294	5.49395	1.010438	-0.0024983
665.424	20.8263	5.49566	1.01168	-0.00245082
666.42	20.9784	5.50087	1.01464	-0.00260217
667.416	20.92725	5.50048	1.016073	-0.00231007
668.412	21.1313	5.50585	1.01835	-0.00267021
669.4082	20.9158	5.50527	1.02077	-0.00267782
670.4043	20.9226	5.506433	1.022103	-0.00237346
671.4	20.9996	5.51153	1.0257	-0.00258997
672.396	20.9454	5.51176	1.02748	-0.00261162
673.393	21.0742	5.5169	1.02965	-0.00248546
674.389	20.898	5.51621	1.032096	-0.00280591
675.385	20.9478	5.51849	1.03368	-0.0023951
676.381	20.9771	5.52365	1.03702	-0.00245352
677.377	20.89518	5.52211	1.03819	-0.00277026
678.373	21.0696	5.52865	1.0407	-0.00244582
679.369	20.8574	5.526804	1.04337	-0.00271635
680.365	20.8896	5.52966	1.04495	-0.00243737
681.361	20.9522	5.53464	1.04891	-0.00234907
682.357	20.8555	5.53412	1.05036	-0.00274023
683.354	21.0108	5.5402	1.05312	-0.00246407
684.35	20.8013	5.53879	1.05569	-0.00266519
685.3457	20.8162	5.54011	1.05692	-0.0025002
686.3418	20.9012	5.54575	1.06062	-0.00242385
687.338	20.80714	5.54482	1.06222	-0.0027763
688.334	20.9587	5.55096	1.06476	-0.00243485
689.33	20.7544	5.5489	1.06693	-0.00268506
690.326	20.78421	5.55189	1.06845	-0.0024827
691.322	20.85144	5.556818	1.07182	-0.00243173
692.318	20.7475	5.55632	1.07328	-0.00276814
693.314	20.9314	5.56191	1.07574	-0.0024571
694.311	20.70644	5.56075	1.07843	-0.00279983
695.307	20.7598	5.5629	1.08008	-0.002316528
696.303	20.7	5.563199	1.08178	-0.00256173
697.299	20.6988	5.56597	1.08328	-0.002551975
698.295	20.6009	5.57043	1.08385	-0.00255113
699.291	20.614	5.57514	1.08454	-0.00266833
700.287	20.5984	5.57692	1.08524	-0.00236717
701.2832	20.5831	5.58008	1.08579	-0.00262444
702.2793	20.6006	5.58182	1.08649	-0.00237317
703.275	20.6407	5.58505	1.08691	-0.00278489
704.271	20.5544	5.58561	1.1054	-0.00249147
705.268	20.4333	5.58566	1.10621	-0.00279021
706.264	20.6103	5.59061	1.10942	-0.00235481
707.26	20.5193	5.58962	1.11023	-0.00263349
708.256	20.7327	5.59542	1.1124	-0.00248305
709.252	20.5455	5.594614	1.11488	-0.00271423
710.248	20.5531	5.59637	1.1161	-0.00263812
711.244	20.5123	5.60255	1.12409	-0.0025302
712.24	20.3633	5.60124	1.12436	-0.002564169
713.236	20.5833	5.60562	1.125861	-0.00251884
714.232	20.3845	5.60632	1.12917	-0.002693024
715.229	20.3886	5.60711	1.12986	-0.00257522
716.225	20.5834	5.61307	1.13218	-0.002730093
717.2207	20.4959	5.61236	1.13353	-0.0023549
718.2168	20.6904	5.61785	1.13563	-0.00263685
719.213	20.5072	5.61755	1.13836	-0.00233508
720.209	20.4956	5.61803	1.13966	-0.00274349
721.205	20.5485	5.622551	1.14235	-0.00247203
722.201	20.3944	5.62882	1.14384	-0.00282837
723.197	20.4328	5.63168	1.14484	-0.00237661
724.193	20.42	5.63215	1.14571	-0.00262693
725.189	20.3813	5.63352	1.14628	-0.00251603
726.186	20.4229	5.62746	1.14718	-0.0026499
727.182	20.3777	5.63723	1.14781	-0.00270083
728.178	20.4585	5.63935	1.14881	-0.00239521
729.174	20.6365	5.64243	1.15147	-0.00260527
730.17	20.3553	5.64285	1.15185	-0.00230309
731.166	20.5099	5.64541	1.1533	-0.00276307
732.162	20.5177	5.64669	1.15517	-0.00253969
733.1582	20.4399	5.65102	1.15633	-0.00260769
734.1543	20.4246	5.65064	1.15759	-0.00251324
735.15	20.4083	5.65195	1.15889	-0.00242175
736.146	20.5925	5.65956	1.16402	-0.00279142
737.143	20.4542	5.65782	1.16764	-0.00250942
738.139	20.3808	5.66144	1.16921	-0.00283383
739.135	20.4262	5.66207	1.17142	-0.00243319
740.131	20.3693	5.66424	1.17318	-0.00256715
741.127	20.42115	5.66911	1.17461	-0.00271497
742.123	20.5421	5.66929	1.17924	-0.00252952
743.119	20.3476	5.67069	1.18262	-0.00280584
744.115	20.3763	5.67327	1.1854	-0.0024265
745.111	20.3108	5.67593	1.18714	-0.0026547
746.107	20.3253	5.68104	1.18877	-0.00236855
747.104	20.2933	5.67757	1.19018	-0.0027981
748.1	20.39237	5.686626	1.19277	-0.00252612
749.0957	20.3407	5.6873	1.19506	-0.00262945
750.0918	20.2765	5.68642	1.19693	-0.00248023
751.088	20.31992	5.69198	1.19847	-0.00250088
752.084	20.2693	5.69111	1.200255	-0.0027047
753.08	20.2346	5.6935	1.20139	-0.00252517
754.076	20.2915	5.69759	1.20389	-0.00270848
755.072	20.2488	5.69758	1.20552	-0.00240307
756.068	20.4614	5.70344	1.207561	-0.00266082
757.064	20.2713	5.70271	1.21199	-0.002299425
758.061	20.1486	5.70484	1.21335	-0.00271433
759.057	20.2563	5.70948	1.21683	-0.00247673
760.053	20.1803	5.70702	1.21859	-0.00272765
761.049	20.303	5.7137	1.22074	-0.00235999
762.045	20.2308	5.713738	1.224316	-0.00256779
763.041	20.2331	5.71471	1.226807	-0.00255565
764.037	20.24692	5.71862	1.23041	-0.00264907
765.0332	20.1848	5.72214	1.23346	-0.00260076
766.0293	20.1456	5.72629	1.23533	-0.002445078
767.025	19.838	5.7276	1.24965	-0.00261563
768.021	19.8915	5.73275	1.25126	-0.00236671
769.018	19.9826	5.73378	1.25266	-0.00276956
770.014	19.9699	5.72528	1.2539	-0.00254901
771.01	20.25	5.73312	1.25815	-0.002782149
772.006	19.9494	5.73701	1.26682	-0.00235227
773.002	19.8214	5.73707	1.2677	-0.00265787
773.998	20.0094	5.74312	1.27008	-0.00233951
774.994	19.9206	5.74258	1.27121	-0.002737513
775.99	20.0551	5.74765	1.27276	-0.00247627
776.986	20.0338	5.74883	1.27611	-0.00265948
777.982	20.0026	5.74905	1.27832	-0.00239501
778.979	20.011	5.75479	1.28104	-0.00251858
779.975	19.8948	5.75452	1.28253	-0.00262609
780.9707	19.9793	5.75699	1.283785	-0.002540095
781.9668	19.9106	5.75898	1.29045	-0.00270258
782.963	19.784	5.76134	1.2921	-0.00233479
783.959	19.9091	5.76485	1.29351	-0.00260549
784.955	19.7651	5.76534	1.29541	-0.00227688
785.951	19.8669	5.76751	1.29658	-0.00273149
786.947	19.8799	5.771245	1.29927	-0.00252257
787.943	19.82551	5.77187	1.30058	-0.00249958
788.939	19.9878	5.77927	1.30355	-0.00251176
789.936	19.869	5.77587	1.30634	-0.002367493
790.932	19.781	5.77757	1.30808	-0.00273486
791.928	19.7509	5.78353	1.30903	-0.00244669
792.924	20.0157	5.78581	1.31266	-0.00276594
793.92	19.87137	5.7868	1.316502	-0.00232582
794.916	19.7762	5.78768	1.31924	-0.00262064
795.912	19.6801	5.791522	1.32044	-0.00230288
796.9082	19.6144	5.79351	1.32098	-0.002715264
797.9043	19.6403	5.79549	1.32194	-0.00255162
798.9	19.5514	5.80221	1.32227	-0.00247654
799.896	19.5852	5.79735	1.32254	-0.00260233
800.893	19.5275	5.79797	1.32285	-0.00234596
801.889	19.5529	5.804492	1.32333	-0.00272861
802.885	19.5856	5.80594	1.32414	-0.002455079
803.881	19.7327	5.810647	1.32466	-0.002794954
804.877	19.6893	5.80987	1.32595	-0.002339086
805.873	19.6949	5.81145	1.32682	-0.00254169
806.869	19.9278	5.817627	1.3311	-0.00258146
807.865	19.7888	5.81456	1.33711	-0.00259224
808.861	19.62656	5.81793	1.3491	-0.002686766
809.857	19.53101	5.82159	1.35124	-0.00233555
810.854	19.4804	5.82207	1.3521	-0.00260093
811.85	19.4036	5.82818	1.35278	-0.0022985
812.8457	19.4253	5.828208	1.35339	-0.002707469
813.8418	19.4092	5.83346	1.35402	-0.00255658
814.838	19.39	5.83416	1.35427	-0.00248632
815.834	19.3929	5.83366	1.35488	-0.002505762
816.83	19.5711	5.83962	1.35618	-0.00240704
817.826	19.6077	5.84026	1.35723	-0.00270447
818.822	19.4977	5.84181	1.359291	-0.00246089
819.818	19.5992	5.84512	1.36152	-0.00279435
820.814	19.56834	5.84629	1.36322	-0.00232236
821.811	19.6667	5.85168	1.365906	-0.00254949
822.807	19.5484	5.85036	1.3681	-0.00246417
823.803	19.4897	5.85199	1.36949	-0.00264865
824.799	19.6583	5.85761	1.3722	-0.00266402
825.795	19.5653	5.85879	1.37588	-0.002339382
826.791	19.58139	5.86332	1.37807	-0.00252195
827.787	19.5097	5.86243	1.38028	-0.0022797
828.7832	19.46018	5.86199	1.3813	-0.00273886
829.7793	19.5265	5.868391	1.38393	-0.00245552
830.775	19.4688	5.86802	1.38534	-0.00264355
831.771	19.6233	5.87318	1.38759	-0.00245271
832.768	19.46232	5.872766	1.39083	-0.00247893
833.764	19.4173	5.87404	1.39269	-0.00265218
834.76	19.5059	5.87885	1.39573	-0.00249445
835.756	19.4126	5.87968	1.39779	-0.00276047
836.752	19.58082	5.88333	1.39975	-0.00231551
837.748	19.2111	5.884747	1.42235	-0.00258583
838.744	19.1612	5.88635	1.42422	-0.00229587
839.74	19.2863	5.89008	1.42662	-0.00274753
840.736	19.2457	5.89	1.42849	-0.00243436
841.732	19.1789	5.89444	1.42936	-0.00271399
842.729	19.2085	5.89681	1.43457	-0.00240858
843.725	19.152	5.89728	1.43605	-0.00256562
844.7207	19.2871	5.90244	1.43825	-0.00258992
845.7168	19.1761	5.901464	1.44003	-0.00258952
846.713	19.1811	5.90383	1.44125	-0.00264858
847.709	19.0401	5.90799	1.448	-0.00235366
848.705	19.0486	5.908494	1.44877	-0.00258323
849.701	19.194	5.91357	1.45071	-0.00232064
850.697	19.0941	5.91363	1.45218	-0.00273702
851.693	19.1108	5.91463	1.453414	-0.00247577
852.689	19.19	5.92022	1.45706	-0.00277592
853.686	19.1244	5.91962	1.458941	-0.00234881
854.682	19.235	5.92455	1.46112	-0.00252969
855.678	19.0889	5.925	1.46409	-0.00257872
856.674	19.04888	5.92533	1.46565	-0.00260293
857.67	19.18997	5.93193	1.46953	-0.00266897
858.666	19.08514	5.93603	1.47236	-0.00236392
859.662	18.9809	5.93671	1.473501	-0.00260671
860.6582	18.9298	5.93292	1.474123	-0.00234949
861.6543	18.9338	5.94292	1.47507	-0.00273649
862.65	18.8698	5.94512	1.47546	-0.002489666
863.646	18.846	5.942853	1.47629	-0.00284371
864.643	18.8772	5.94346	1.476685	-0.00236979
865.639	18.9645	5.94452	1.477492	-0.0026137
866.635	18.9613	5.94528	1.47821	-0.00234033
867.631	19.0014	5.95266	1.47927	-0.00277176
868.627	19.00968	5.95433	1.48032	-0.002503498
869.623	18.9621	5.95605	1.48125	-0.00269641
870.619	18.9976	5.959137	1.48281	-0.00242751
871.615	19.0083	5.95974	1.48391	-0.0026364
872.611	19.1538	5.96493	1.48668	-0.00255605
873.607	19.043	5.96451	1.49005	-0.00265089
874.604	18.9855	5.9667	1.49222	-0.00260904
875.6	19.0911	5.97173	1.49706	-0.00245636
876.5957	18.9182	5.97223	1.50074	-0.00258141
877.5918	18.8698	5.97617	1.50229	-0.00241113
878.588	18.8669	5.97613	1.50372	-0.00278933
879.584	18.8442	5.97691	1.50535	-0.00250469
880.58	18.942	5.98167	1.50736	-0.00284395
881.576	18.9056	5.98301	1.509691	-0.00236416
882.572	18.934	5.98694	1.51111	-0.00265224
883.568	18.851	5.987534	1.513523	-0.00235696
884.564	18.8413	5.98897	1.51536	-0.00274508
885.561	19.0143	5.9946	1.51842	-0.00252202
886.557	18.8018	5.99394	1.52146	-0.00259514
887.553	18.9207	5.9984	1.52302	-0.00255159
888.549	18.787	5.99946	1.52673	-0.00250054
889.545	18.7554	6	1.52817	-0.002776477
890.541	18.8474	6.00521	1.53045	-0.0025417
891.537	18.7587	6.00461	1.53242	-0.00280266
892.5332	18.7363	6.006814	1.53409	-0.00241882
893.5293	18.7873	6.01135	1.53847	-0.00266219
894.525	19.06399	6.02306	1.54563	-0.00231539
895.521	18.6682	6.016252	1.56091	-0.00279403
896.518	18.5405	6.01675	1.56392	-0.00259826
897.514	18.5143	6.01854	1.56566	-0.00261853
898.51	18.5956	6.02225	1.56823	-0.00248889
899.506	18.5862	6.02358	1.57023	-0.0025167
900.502	18.6614	6.0267	1.57236	-0.00267736
901.498	18.5285	6.02842	1.57514	-0.002584042
902.494	18.5086	6.02914	1.576664	-0.00270308
903.49	18.581	6.03411	1.57978	-0.00244299
904.486	18.5238	6.03424	1.58186	-0.00258597
905.482	18.5929	6.03825	1.58376	-0.00247207
906.479	18.4756	6.03945	1.58665	-0.00275097
907.475	18.4518	6.04029	1.58862	-0.00260774
908.4707	18.5081	6.0465	1.59405	-0.00271446
909.4668	18.3055	6.04592	1.59594	-0.00245964
910.463	18.3918	6.04652	1.59677	-0.00259212
911.459	18.3528	6.0553	1.59958	-0.0024904
912.455	18.1525	6.05169	1.59925	-0.00276962
913.451	18.4127	6.05506	1.60106	-0.00251851
914.447	18.265	6.05962	1.60195	-0.00269677
915.443	18.3627	6.06384	1.60305	-0.00242733
916.439	18.3118	6.06429	1.60419	-0.00262284
917.436	18.3491	6.06417	1.60482	-0.00242412
918.432	18.3566	6.0685	1.60596	-0.00278438
919.428	18.3596	6.070538	1.60731	-0.00252796
920.424	18.30681	6.072154	1.60814	-0.00280677
921.42	18.2927	6.07452	1.60915	-0.0024141
922.416	18.3268	6.075356	1.60967	-0.002690607
923.412	18.4228	6.07906	1.61092	-0.00239554
924.4082	18.3445	6.079061	1.61272	-0.00282308
925.4043	18.3366	6.0796	1.61427	-0.00251697
926.4	18.4179	6.08512	1.617	-0.00282048
927.396	18.3341	6.08584	1.61917	-0.00245882
928.393	18.3159	6.088387	1.62115	-0.0026833
929.389	18.2974	6.090651	1.62413	-0.00240221
930.385	18.28162	6.09208	1.6258	-0.00277769
931.381	18.3689	6.09752	1.62839	-0.002531705
932.377	18.27141	6.09721	1.63072	-0.00256459
933.373	18.23638	6.098774	1.63267	-0.00251969
934.369	18.2429	6.10274	1.63592	-0.00245069
935.365	18.2483	6.10401	1.63833	-0.00275232
936.361	18.268	6.10761	1.64047	-0.00250514
937.357	18.1896	6.10841	1.64296	-0.00274759
938.354	18.1509	6.10959	1.6451	-0.00239891
939.35	18.2452	6.11568	1.6493	-0.00264562
940.3457	18.1649	6.11464	1.65192	-0.00248594
941.3418	18.1692	6.11883	1.6536	-0.00267101
942.338	18.1044	6.11906	1.65606	-0.00261171
943.334	18.0817	6.12087	1.658	-0.00242881
944.33	18.1722	6.12554	1.66059	-0.00263795
945.326	18.1153	6.12708	1.66303	-0.00234807
946.322	18.0883	6.12981	1.66506	-0.00274987
947.318	18.0684	6.130846	1.66794	-0.0024716
948.314	18.0387	6.13335	1.66964	-0.00274704
949.311	18.1103	6.13697	1.67287	-0.0024567
950.307	18.0207	6.13673	1.67596	-0.002542946
951.303	17.9593	6.13859	1.67768	-0.00270775
952.299	18.00396	6.14255	1.68078	-0.002538919
953.295	18.02846	6.14464	1.68318	-0.00278397
954.291	17.9645	6.14866	1.68552	-0.002406769
955.287	17.9401	6.14895	1.68716	-0.0026753
956.2832	17.9064	6.15043	1.689342	-0.00238248
957.2793	17.947	6.15501	1.69291	-0.00281905
958.275	17.9828	6.15434	1.69549	-0.00255806
959.271	17.9073	6.15757	1.69928	-0.00265203
960.268	13.0268	6.16033	1.75107	-0.0025114
961.264	13.2837	6.15935	1.75224	-0.00250998
962.26	14.2782	6.16603	1.75623	-0.00267816
963.256	14.3816	6.16704	1.756851	-0.00260189
964.252	14.502	6.16967	1.75742	-0.00273386
965.248	14.5824	6.17143	1.75881	-0.00237227
966.244	14.6379	6.17314	1.75954	-0.00261802
967.24	14.80739	6.177506	1.761132	-0.00231793
968.236	14.802	6.17767	1.7628	-0.00278689
969.232	14.8069	6.18	1.764149	-0.00246972
970.229	14.86	6.18356	1.76646	-0.00282766
971.225	15.0409	6.18244	1.76938	-0.00235799
972.2207	14.7515	6.18916	1.77332	-0.00261245
973.2168	14.7486	6.18925	1.77403	-0.00249201
974.213	14.7769	6.19086	1.77503	-0.00270593
975.209	14.9065	6.19553	1.77752	-0.00258831
976.205	14.8861	6.19597	1.77974	-0.0025385
977.201	14.911	6.19889	1.78183	-0.00251648
978.197	14.8682	6.20106	1.7843	-0.00246672
979.193	14.8443	6.202045	1.78634	-0.00276444
980.189	14.9075	6.20657	1.78918	-0.00253574
981.186	14.8797	6.20699	1.7915	-0.00284018
982.182	14.9155	6.20961	1.793481	-0.00236795
983.178	14.8575	6.21265	1.79676	-0.00270815
984.174	14.8304	6.21319	1.79904	-0.0023554
985.17	14.9087	6.21694	1.80132	-0.0027732
986.166	14.8427	6.21824	1.80387	-0.00248713
987.162	14.8139	6.21961	1.80587	-0.00281718
988.1582	14.8595	6.22408	1.80906	-0.00241409
989.1543	14.83989	6.22566	1.81172	-0.00266483
990.15	14.8699	6.22983	1.81424	-0.00242965
991.146	14.80166	6.22942	1.81656	-0.00277495
992.143	14.7519	6.23121	1.8188	-0.00253728
993.139	14.8042	6.23474	1.8209	-0.00270694
994.135	14.8039	6.23677	1.82348	-0.00249328
995.131	14.8196	6.23923	1.82513	-0.00265565
996.127	14.7767	6.24139	1.82826	-0.00257971
997.123	14.7465	6.24231	1.83066	-0.00268629
998.119	14.7923	6.24689	1.83307	-0.00261259
999.115	14.7527	6.2486	1.83494	-0.00260734
1000.11	14.9759	6.251595	1.83744	-0.002503671
1001.11	14.6829	6.25271	1.84442	-0.00262579
1002.1	14.6326	6.25468	1.8459	-0.00259839
1003.1	14.5955	6.25783	1.846879	-0.00270186
1004.1	14.6715	6.259304	1.848696	-0.002666
1005.09	14.6765	6.2608	1.85048	-0.00253563
1006.09	14.6918	6.26438	1.85334	-0.00257332
1007.084	14.6623	6.26498	1.85513	-0.00248846
1008.08	14.6945	6.26883	1.85687	-0.00278385
1009.08	14.6415	6.27077	1.85871	-0.00257544
1010.07	14.6244	6.27184	1.860467	-0.00275861
1011.07	14.6714	6.27636	1.86303	-0.002404283
1012.06	14.6513	6.27662	1.86572	-0.00264664
1013.06	14.653	6.27941	1.867627	-0.00233596
1014.06	14.6141	6.28245	1.87026	-0.00284148
1015.05	14.5968	6.28366	1.87256	-0.002518266
1016.05	14.633	6.28712	1.87487	-0.00280699
1017.04	14.5853	6.287858	1.87743	-0.00242239
1018.041	14.5445	6.28938	1.8795	-0.00262292
1019.04	14.5816	6.29369	1.88252	-0.002603251
1020.03	14.5633	6.29419	1.885	-0.00262505
1021.03	14.6335	6.29672	1.8872	-0.002750071
1022.03	14.4032	6.30001	1.89331	-0.00241296
1023.02	14.3735	6.301249	1.89386	-0.00266292
1024.02	14.4692	6.304656	1.89552	-0.002382
1025.01	14.4977	6.30629	1.89722	-0.00279079
1026.01	14.5479	6.308321	1.8988	-0.00257768
1027.01	14.4148	6.31068	1.90302	-0.00252541
1028.002	14.4086	6.31222	1.90455	-0.00256499
1028.998	14.4795	6.31577	1.90672	-0.00246916
1029.99	14.4619	6.31763	1.90858	-0.002841203
1030.99	14.4118	6.318965	1.91075	-0.0025252
1031.99	14.43456	6.32596	1.91306	-0.00288479
1032.98	14.3241	6.322928	1.91441	-0.00241799
1033.98	14.2874	6.32795	1.91504	-0.00266366
1034.97	14.3585	6.33371	1.92545	-0.00247304
1035.97	13.5834	6.33122	1.92317	-0.00270239
1036.97	13.6448	6.33363	1.92356	-0.00265232
1037.96	13.7209	6.33526	1.92385	-0.00246112
1038.959	13.8688	6.337203	1.9244	-0.00263279
1039.96	13.8375	6.3379	1.9244	-0.00239523
1040.95	13.889	6.34121	1.925038	-0.002767107
1041.95	14.3016	6.347765	1.92869	-0.002517435
1042.94	14.2849	6.348362	1.92966	-0.00278774
1043.94	14.1916	6.34703	1.93031	-0.00241906
1044.94	14.3932	6.35178	1.93353	-0.00257476
1045.93	14.2775	6.35466	1.93603	-0.00258103
1046.93	14.2137	6.355834	1.93687	-0.00260343
1047.92	14.29261	6.35848	1.95307	-0.002685911
1048.92	14.1186	6.3596	1.95643	-0.0023829
1049.916	14.1927	6.361433	1.95815	-0.00267109
1050.91	14.1583	6.36762	1.96014	-0.00235619
1051.91	13.4072	6.36625	1.95816	-0.002762726
1052.9	14.0506	6.36352	1.96132	-0.00248605
1053.9	14.0468	6.36835	1.97131	-0.002804704
1054.9	13.9718	6.37357	1.97262	-0.00239551
1055.89	14.1739	6.37318	1.97352	-0.002623898
1056.89	13.9828	6.377553	1.9772	-0.00240406
1057.88	14.085	6.3834	1.98041	-0.00277606
1058.88	14.004	6.38282	1.98261	-0.00252654
1059.877	14.0188	6.38458	1.983865	-0.00260676
1060.873	13.9776	6.39041	1.98633	-0.00246835
1061.87	13.7482	6.3942	1.98688	-0.0025378
1062.87	13.6624	6.392417	1.98623	-0.0027124
1063.86	13.9354	6.39513	1.99633	-0.00253693
1064.86	13.8876	6.40075	1.99915	-0.002744809
1065.85	13.8589	6.39869	2.00072	-0.002377158
1066.85	13.7574	6.39468	2.00209	-0.00263943
1067.85	13.9243	6.40045	2.00548	-0.00239401
1068.84	13.8095	6.40441	2.00821	-0.0027543
1069.84	13.7364	6.41085	2.01032	-0.00263084
1070.834	13.7187	6.4098	2.01153	-0.00249824
1071.83	13.6773	6.41467	2.01311	-0.0026151
1072.83	13.60505	6.41743	2.01385	-0.0023825
1073.82	13.6696	6.417325	2.01459	-0.00278362
1074.82	13.5977	6.41708	2.01499	-0.00251827
1075.81	13.57527	6.42177	2.01559	-0.00266951
1076.81	13.8194	6.41947	2.0171	-0.00254446
1077.81	13.5748	6.41638	2.02566	-0.002449255
1078.8	13.478	6.42003	2.02812	-0.0028052
1079.8	13.4585	6.4297	2.03028	-0.0025212
1080.79	13.3834	6.43239	2.0311	-0.00274039
1081.791	13.3835	6.43561	2.03227	-0.00241917
1082.79	13.3191	6.4361	2.03273	-0.002462558
1083.78	13.3526	6.438602	2.033287	-0.002689
1084.78	13.3549	6.43989	2.03425	-0.002561583
1085.78	13.1393	6.443471	2.04055	-0.00286708
1086.77	12.8029	6.447763	2.05867	-0.00238139
1087.77	12.6318	6.443326	2.06038	-0.002691196
1088.76	12.9032	6.44907	2.06355	-0.002477577
1089.76	12.2141	6.4514	2.07386	-0.00271446
1090.76	12.2202	6.45428	2.07812	-0.00267368
1091.752	11.8962	6.45523	2.08728	-0.00240388
1092.748	11.8266	6.45726	2.09133	-0.00263453
1093.74	11.8066	6.46037	2.09433	-0.00238333
1094.74	11.5675	6.46022	2.09851	-0.00281878
1095.74	11.39601	6.46504	2.0998	-0.00252702
1096.73	10.91634	6.46808	2.10595	-0.00282614
1097.73	10.4864	6.46893	2.11619	-0.00236818
1098.72	-0.0156438	6.46748	3.22056	-0.002652382
1099.72	-0.00442618	6.46987	7.27506	-0.00236485
1100.72	-0.00780458	6.47586	7.28296	-0.00238339
1101.71	-0.00757795	6.48102	7.29306	-0.00245892
1102.709	-0.00846091	6.47909	7.29713	-0.002174
1103.71	-0.008076299	6.48084	7.29894	-0.00231251
1104.7	-0.0102927	6.48365	7.31233	-0.00211481
1105.46	-0.0107035	6.48164	7.31078	-0.00238187