File: shares/flx_lsms_hydrogen/EXPERIMENTAL_DATA/LABO_SOETE/WP1_TENSILE/AIR/MTS/LYA1/specimen.dat
MTS793|MPT|ENU|1|2|.|/|:|1|0|0|A

Data Acquisition						Time:	15.0195	s	12/20/2021 2:09:56 PM
Time	ESH B Force	ESH B Displacement	Analog In 2	Analog In 1
s	kN	mm	V	V
0.0332031	0.125202	-15.0032	-0.00415193	-0.0117864
0.633789	0.171019	-14.99576	-0.00408654	-0.0117203
1.234375	0.209011	-14.9874	-0.0037697	-0.0113433
1.83496	0.236401	-14.9808	-0.00371931	-0.0112725
2.43555	0.264751	-14.975	-0.00368894	-0.0109571
3.03613	0.2962	-14.9691	-0.00348361	-0.0110069
3.63672	0.312958	-14.9645	-0.00346385	-0.0107722
4.2373	0.33678	-14.9591	-0.00347112	-0.0108218
4.83789	0.372222	-14.9524	-0.00328182	-0.0108965
5.43848	0.416779	-14.945	-0.00314961	-0.0106743
6.03906	0.4625	-14.9388	-0.00288096	-0.010393
6.63965	0.50751	-14.9325	-0.00257195	-0.01038169
7.24023	0.560154	-14.928	-0.00256119	-0.00997256
7.84082	0.5904	-14.9233	-0.00248417	-0.0097884
8.44141	0.643916	-14.9177	-0.0021569	-0.00944851
9.04199	0.758811	-14.9091	-0.00189845	-0.00889193
9.64258	0.838993	-14.9023	-0.00163334	-0.00856221
10.2432	0.918765	-14.8966	-0.00135439	-0.0082564
10.84375	1.00928	-14.8906	-0.00106585	-0.00772443
11.4443	1.05032	-14.8872	-0.00108928	-0.007366112
12.0449	1.1463	-14.8819	-0.000781158	-0.00712423
12.6455	1.316126	-14.874	-0.000131698	-0.00649424
13.2461	1.44838	-14.8665	0.000750056	-0.0058204
13.84668	1.58609	-14.8599	0.00117767	-0.00507994
14.4473	1.71643	-14.855	0.00169037	-0.00435491
15.0479	1.8249	-14.8503	0.002319678	-0.00407218
15.6484	1.93625	-14.8452	0.002635092	-0.00379065
16.249	2.08507	-14.8392	0.00318594	-0.002868314
16.8496	2.29923	-14.83154	0.00405166	-0.00247223
17.4502	2.45889	-14.8251	0.00459712	-0.002080034
18.0508	2.62369	-14.8186	0.00555793	-0.00153704
18.6514	2.73339	-14.8141	0.006182739	-0.00118699
19.252	2.86212	-14.8094	0.00677869	-0.0008431403
19.8525	3.07153	-14.8023	0.00768832	0.000116538
20.4531	3.32297	-14.7952	0.00890904	0.00119627
21.0537	3.49513	-14.7886	0.00985605	0.00208483
21.6543	3.686415	-14.7823	0.0108688	0.00269199
22.2549	3.87364	-14.7767	0.0117709	0.00356337
22.8555	3.92958	-14.77206	0.0123296	0.0038202
23.4561	4.14195	-14.7671	0.012557	0.00432873
24.0566	4.45934	-14.7588	0.01405183	0.005104505
24.6572	4.67345	-14.7527	0.0152858	0.00638677
25.2578	4.81917	-14.7482	0.0159782	0.006945502
25.8584	5.04	-14.7418	0.0171462	0.00791147
26.459	5.22345	-14.7361	0.0181081	0.00902151
27.05957	5.38224	-14.7322	0.0187078	0.00976885
27.6602	5.69465	-14.7241	0.02020335	0.011116
28.2607	5.98575	-14.716	0.0218807	0.0123427
28.8613	6.16741	-14.7114	0.0227339	0.013184
29.4619	6.44147	-14.7049	0.0239466	0.0140102
30.0625	6.65441	-14.6991	0.0251238	0.0151104
30.6631	6.852932	-14.6941	0.0260224	0.0156317
31.2637	7.27398	-14.6858	0.0272399	0.0166429
31.8643	7.43283	-14.6807	0.0287376	0.0180858
32.4648	7.68594	-14.6734	0.0299953	0.0193966
33.06543	7.9569	-14.6691	0.0313144	0.0207784
33.666	8.22167	-14.6617	0.032536	0.0217129
34.2666	8.31141	-14.6593	0.0330864	0.0224043
34.8672	8.87925	-14.65002	0.0362136	0.0248373
35.4678	9.217309	-14.6409	0.03704726	0.0256502
36.0684	9.28667	-14.638	0.0378532	0.0260852
36.6689	9.55173	-14.63174	0.039377	0.0274271
37.2695	10.60623	-14.6284	0.0439854	0.031291
37.8701	10.8336	-14.6224	0.0461497	0.03317441
38.4707	10.8214	-14.6175	0.046118	0.0335072
39.0713	10.80651	-14.6111	0.0462268	0.0333035
39.6719	10.82234	-14.6029	0.0465162	0.0337619
40.2725	11.0459	-14.5971	0.0471231	0.0344269
40.873	11.55624	-14.5928	0.050461	0.037454
41.4736	11.6881	-14.5869	0.0510733	0.0376883
42.0742	11.8035	-14.5823	0.0517183	0.038276
42.6748	12.1183	-14.5752	0.0531701	0.0397527
43.2754	12.48331	-14.5671	0.0550447	0.0414703
43.876	12.809	-14.5611	0.0568136	0.0433221
44.4766	13.089	-14.5543	0.058307	0.0444797
45.0771	13.3565	-14.5496	0.0602336	0.04643935
45.6777	13.5428	-14.5451	0.0614673	0.0477631
46.27832	13.7391	-14.5394	0.0627215	0.0488554
46.8789	14.097	-14.5313	0.0646599	0.0510242
47.4795	14.4075	-14.5231	0.0673084	0.0536989
48.0801	14.6405	-14.5173	0.0691104	0.05573611
48.6807	14.7585	-14.5121	0.0706865	0.0577758
49.28125	14.9505	-14.5083	0.0724847	0.0598374
49.8818	15.0143	-14.50217	0.0733553	0.061355
50.4824	15.1637	-14.4966	0.0752057	0.0635009
51.083	15.3428	-14.4885	0.077904	0.0675877
51.6836	15.3626	-14.4829	0.0810778	0.073508
52.28418	15.4068	-14.4769	0.0832198	0.0772154
52.8848	15.4533	-14.4715	0.0853921	0.080873
53.4854	15.4332	-14.4669	0.0862454	0.083337
54.0859	15.5499	-14.4605	0.0880558	0.08662498
54.6865	15.5824	-14.4531	0.0908402	0.0922298
55.2871	15.5708	-14.4463	0.0934595	0.0984273
55.8877	15.5948	-14.4392	0.09593717	0.103856
56.4883	15.5802	-14.434	0.09833701	0.109693
57.0889	15.4941	-14.4306	0.0998723	0.11381
57.6895	15.6175	-14.4246	0.10143	0.116922
58.29	15.6726	-14.4172	0.104825	0.123119
58.8906	15.6126	-14.4109	0.10852	0.130733
59.4912	15.6197	-14.4039	0.111219	0.1361804
60.0918	15.6102	-14.3984	0.114279	0.141911
60.6924	15.6195	-14.394	0.116356	0.1457995
61.293	15.64452	-14.3892	0.118533	0.149677
61.8936	15.6582	-14.3825	0.12179	0.155406
62.4941	15.7015	-14.3742	0.126124	0.161861
63.0947	15.6683	-14.3681	0.130106	0.167799
63.6953	15.7018	-14.3627	0.134157	0.173747
64.2959	15.6911	-14.3557	0.138473	0.17974
64.8965	15.60381	-14.35292	0.140224	0.182783
65.49707	15.717	-14.3464	0.144175	0.1872599
66.0977	15.7428	-14.3397	0.148397	0.192946
66.6982	15.7563	-14.3325	0.153739	0.1986198
67.2988	15.724	-14.32596	0.157957	0.20342
67.8994	15.72992	-14.3195	0.162271	0.208356
68.5	15.6929	-14.3156	0.16623	0.212475
69.1006	15.7273	-14.3112	0.168785	0.21502
69.7012	15.7261	-14.3043	0.17363	0.219948
70.3018	15.7766	-14.2962	0.179423	0.225464
70.9023	15.7036	-14.2904	0.187376	0.232488
71.50293	15.7425	-14.2845	0.189974	0.234441
72.1035	15.7542	-14.2789	0.193657	0.237561
72.7041	15.6784	-14.2739	0.197868	0.240863
73.3047	15.8176	-14.2683	0.200919	0.2430938
73.9053	15.84596	-14.2609	0.206482	0.2477378
74.5059	15.8335	-14.251	0.214421	0.25344
75.1064	15.8191	-14.24839	0.218151	0.256053
75.707	15.8057	-14.2428	0.223208	0.259562
76.3076	15.76895	-14.2398	0.225999	0.261226
76.9082	15.8507	-14.2318	0.230956	0.26539
77.5088	15.8674	-14.2247	0.237058	0.270238
78.1094	15.8288	-14.21894	0.24317	0.274651
78.71	15.8431	-14.21209	0.2489787	0.279029
79.3105	15.8479	-14.2066	0.2536501	0.282835
79.9111	15.805	-14.2022	0.257973	0.285883
80.5117	15.8413	-14.1973	0.26179	0.2890673
81.1123	15.9304	-14.1896	0.267024	0.293559
81.7129	15.9122	-14.1825	0.273715	0.298319
82.3135	15.9216	-14.1765	0.278881	0.301232
82.9141	15.9299	-14.1701	0.283691	0.303968
83.5146	15.90206	-14.1648	0.288285	0.306673
84.1152	15.8992	-14.1612	0.291144	0.308286
84.71582	15.9338	-14.1546	0.296153	0.311812
85.3164	16.0166	-14.1472	0.302341	0.315929
85.917	15.9623	-14.1395	0.308424	0.3197735
86.5176	15.9985	-14.135	0.313408	0.323117
87.1182	15.9807	-14.1281	0.317957	0.326092
87.71875	16.0964	-14.1212	0.322741	0.3294653
88.3193	15.9619	-14.1188	0.328174	0.333354
88.9199	16.0001	-14.1102	0.336253	0.3394894
89.5205	15.9403	-14.105	0.339288	0.342053
90.1211	15.9768	-14.0979	0.342911	0.344871
90.72168	15.9203	-14.0928	0.345789	0.34709
91.3223	16.0138	-14.0863	0.348568	0.349502
91.9229	16.0255	-14.092	0.357019	0.356581
92.5234	16.03	-14.0739	0.359159	0.358374
93.124	16.1204	-14.0675	0.36157	0.360022
93.7246	16.0853	-14.0617	0.366411	0.364302
94.3252	16.1016	-14.0554	0.370668	0.3678036
94.9258	16.1528	-14.0495	0.375055	0.371547
95.5264	16.0185	-14.046	0.379082	0.375123
96.127	16.08123	-14.0406	0.381396	0.377473
96.7275	16.1425	-14.0338	0.385761	0.381183
97.3281	16.14974	-14.0255	0.3912257	0.3862707
97.9287	16.1632	-14.0205	0.396028	0.390219
98.5293	16.164	-14.0135	0.4006463	0.394363
99.1299	16.1359	-14.0091	0.404255	0.397645
99.7305	16.1497	-14.0048	0.407084	0.400066
100.331	16.1732	-13.9981	0.4113	0.404093
100.932	16.265	-13.9905	0.415926	0.408439
101.532	16.1949	-13.9844	0.421062	0.413491
102.133	16.2203	-13.9774	0.42567	0.41743
102.7334	16.2409	-13.9729	0.429677	0.421026
103.334	16.2042	-13.9679	0.432741	0.424073
103.935	16.2372	-13.9621	0.436193	0.426984
104.535	16.2846	-13.9554	0.440529	0.431046
105.136	16.3168	-13.948	0.446068	0.435894
105.736	16.2766	-13.9425	0.45072	0.440499
106.337	16.2944	-13.9356	0.454888	0.444525
106.9375	16.2443	-13.9312	0.458872	0.44797
107.538	16.2799	-13.9265	0.461088	0.450189
108.139	16.30365	-13.9195	0.465356	0.454532
108.739	16.343	-13.9119	0.470579	0.459363
109.34	16.3189	-13.9057	0.475127	0.463608
109.94	16.3458	-13.8993	0.479624	0.4677299
110.541	16.3304	-13.8942	0.483785	0.471606
111.1416	16.2966	-13.8898	0.48792	0.475258
111.742	16.3748	-13.8842	0.489975	0.477309
112.343	16.42276	-13.8763	0.494599	0.481701
112.943	16.3808	-13.8703	0.499873	0.4870269
113.544	16.4189	-13.8636	0.50411	0.490805
114.145	16.4189	-13.8572	0.508681	0.495549
114.745	16.3637	-13.8535	0.512176	0.498877
115.3457	16.382	-13.8486	0.514183	0.5006
115.946	16.4518	-13.8414	0.518654	0.504805
116.547	16.465	-13.8341	0.525157	0.510759
117.147	16.4851	-13.8281	0.531238	0.516528
117.748	16.5025	-13.8178	0.537935	0.522973
118.349	16.4626	-13.8185	0.549658	0.53405
118.949	16.4404	-13.8126	0.556673	0.540871
119.5498	16.3387	-13.8047	0.559168	0.543355
120.15	16.3371	-13.7984	0.561082	0.545309
120.751	16.3186	-13.7918	0.562133	0.546386
121.352	16.2964	-13.7843	0.5630883	0.5467729
121.952	16.3405	-13.7802	0.564248	0.547812
122.553	16.42124	-13.77564	0.566312	0.54996
123.153	16.5084	-13.77	0.568835	0.552556
123.754	16.5421	-13.764	0.572444	0.5563848
124.354	16.5803	-13.7561	0.578331	0.56163
124.955	16.5682	-13.74962	0.582906	0.56586
125.556	16.567	-13.74419	0.587136	0.57001
126.156	16.5672	-13.7378	0.591297	0.573732
126.757	16.4707	-13.7339	0.593764	0.575622
127.357	16.5811	-13.72737	0.597181	0.578941
127.958	16.6105	-13.7202	0.601718	0.583753
128.559	16.6093	-13.71443	0.607329	0.589071
129.159	16.5902	-13.7087	0.611209	0.593226
129.76	16.6071	-13.7008	0.615891	0.597398
130.36	16.5634	-13.6973	0.619441	0.600639
130.961	16.6098	-13.6918	0.621987	0.602964
131.562	16.66913	-13.6869	0.626579	0.607116
132.162	16.6658	-13.6775	0.6314652	0.612025
132.7627	16.6777	-13.6721	0.635934	0.616337
133.363	16.6621	-13.6653	0.640297	0.620798
133.964	16.66279	-13.6606	0.6442852	0.624934
134.564	16.6303	-13.6557	0.647684	0.627996
135.165	16.63781	-13.65	0.651045	0.631329
135.766	16.72607	-13.6432	0.655563	0.6359241
136.366	16.6966	-13.6361	0.660984	0.640747
136.9668	16.692	-13.6294	0.665183	0.644789
137.567	16.7056	-13.6232	0.669545	0.649123
138.168	16.6586	-13.6188	0.673442	0.652838
138.769	16.7006	-13.61413	0.675976	0.655451
139.369	16.7187	-13.608	0.680259	0.659485
139.97	16.7518	-13.6	0.685661	0.664984
140.57	16.7219	-13.5941	0.689993	0.6689744
141.1709	16.7653	-13.5877	0.693651	0.672522
141.771	16.7599	-13.5832	0.697846	0.676727
142.372	16.685	-13.5781	0.712457	0.6904639
142.973	16.533	-13.5773	0.713923	0.691787
143.573	16.591	-13.5611	0.715017	0.692654
144.174	16.5849	-13.558	0.715837	0.693752
144.774	16.7531	-13.5511	0.718615	0.696618
145.375	16.7522	-13.5469	0.7223255	0.700528
145.976	16.7397	-13.5431	0.725107	0.703438
146.576	16.78018	-13.5359	0.729453	0.707257
147.177	16.8464	-13.5286	0.7346139	0.712018
147.777	16.8235	-13.5217	0.739485	0.717088
148.378	16.859	-13.5154	0.743715	0.720982
148.979	16.79044	-13.5094	0.748666	0.7258231
149.5791	16.7583	-13.5059	0.751047	0.728032
150.18	16.8394	-13.4991	0.7544986	0.7314772
150.78	16.8852	-13.4929	0.759652	0.736787
151.381	16.8522	-13.4857	0.766014	0.74328
151.981	16.8115	-13.4792	0.769139	0.746322
152.582	16.86611	-13.4724	0.7723543	0.749269
153.183	16.8258	-13.4689	0.7757	0.752372
153.7832	16.8389	-13.464	0.778242	0.75497
154.384	16.8887	-13.4561	0.782774	0.759185
154.984	16.9113	-13.4503	0.787949	0.764224
155.585	16.9121	-13.4432	0.792592	0.769183
156.186	16.9078	-13.4375	0.796822	0.773595
156.786	16.8374	-13.4322	0.800799	0.77758
157.387	16.8356	-13.4274	0.803291	0.779973
157.9873	16.9271	-13.4213	0.806858	0.783268
158.588	16.9541	-13.4139	0.812046	0.787979
159.188	16.9278	-13.4072	0.816944	0.792803
159.789	16.9384	-13.402	0.820786	0.7968092
160.39	16.9346	-13.3949	0.825405	0.801369
160.99	16.8518	-13.3901	0.82852	0.804499
161.591	16.9436	-13.386	0.8309018	0.807131
162.191	17.0245	-13.3781	0.835306	0.811868
162.792	16.9692	-13.3717	0.840902	0.817115
163.393	16.9743	-13.3655	0.845507	0.82167
163.993	16.99094	-13.359	0.849755	0.825444
164.594	16.9442	-13.3538	0.853757	0.829668
165.194	16.893	-13.3504	0.856228	0.831654
165.795	17.0044	-13.3446	0.859774	0.835548
166.396	17.0197	-13.3362	0.864735	0.840513
166.996	17.008	-13.3296	0.869584	0.845464
167.597	16.9883	-13.3235	0.874217	0.850155
168.197	16.9798	-13.3178	0.878513	0.854379
168.798	16.9551	-13.3132	0.881749	0.857587
169.398	16.9765	-13.3078	0.884519	0.860583
169.999	17.0564	-13.3013	0.888796	0.864756
170.6	17.0512	-13.2933	0.89417	0.869709
171.2002	17.0365	-13.2871	0.898485	0.87389
171.801	17.1161	-13.2797	0.903387	0.878775
172.401	16.9823	-13.2755	0.907387	0.882913
173.002	17.0063	-13.2718	0.908814	0.884834
173.603	17.0312	-13.2656	0.913202	0.889179
174.203	17.1537	-13.2559	0.921184	0.896805
174.804	16.97891	-13.2499	0.925772	0.90165
175.4043	17.03973	-13.2447	0.928395	0.9042781
176.005	17.0258	-13.24051	0.932126	0.9078
176.605	16.98864	-13.2355	0.934962	0.910532
177.206	17.0218	-13.2299	0.937603	0.91327
177.807	17.0778	-13.2214	0.944933	0.920634
178.407	17.07024	-13.2153	0.949043	0.925171
179.008	17.1099	-13.2092	0.954552	0.9305166
179.6084	17.1749	-13.2014	0.9597472	0.935838
180.209	17.0627	-13.19986	0.964496	0.940875
180.81	17.08313	-13.195	0.968309	0.94444
181.41	17.097	-13.1879	0.973737	0.949864
182.011	17.0412	-13.1808	0.977041	0.953087
182.611	16.9947	-13.1729	0.9785468	0.954892
183.212	17.0878	-13.167	0.980682	0.95712
183.8125	17.11043	-13.1606	0.9846307	0.9612149
184.413	17.04669	-13.1568	0.9880743	0.964671
185.014	17.1053	-13.1517	0.99047	0.967066
185.614	17.1634	-13.1444	0.995018	0.971733
186.215	17.1394	-13.13759	1.00023	0.977102
186.815	17.13975	-13.1307	1.00471	0.981107
187.416	17.1463	-13.125	1.00899	0.985145
188.0166	17.0982	-13.1201	1.01267	0.988877
188.617	17.1335	-13.1159	1.01506	0.991408
189.218	17.1745	-13.1088	1.02002	0.996417
189.818	17.1777	-13.1011	1.02428	1.00108
190.419	17.1619	-13.0954	1.02887	1.006
191.02	17.262	-13.0874	1.033094	1.00998
191.62	17.1681	-13.0833	1.03742	1.01454
192.2207	17.0237	-13.08005	1.039821	1.01721
192.821	17.2022	-13.0734	1.04261	1.0198
193.422	17.2206	-13.06636	1.04812	1.02532
194.022	17.1934	-13.0599	1.05291	1.0304
194.623	17.18149	-13.053	1.057565	1.03519
195.224	17.18166	-13.0465	1.06185	1.03991
195.824	17.1831	-13.042	1.06586	1.04405
196.4248	17.1314	-13.0383	1.0686	1.04714
197.025	17.2487	-13.0303	1.07287	1.05122
197.626	17.2313	-13.0235	1.07729	1.05564
198.227	17.2376	-13.01798	1.0825	1.0611
198.827	17.2327	-13.0101	1.089258	1.06811
199.428	17.1638	-13.0064	1.09355	1.07269
200.028	17.0727	-13.0011	1.09545	1.07457
200.629	17.1306	-12.9952	1.09674	1.07588
201.229	17.2606	-12.988	1.10098	1.08056
201.83	17.2096	-12.9811	1.10642	1.08608
202.431	17.2324	-12.9754	1.11043	1.0904
203.031	17.2555	-12.9685	1.11472	1.09458
203.632	17.2017	-12.96373	1.11852	1.09867
204.232	17.1589	-12.9592	1.12066	1.1009
204.833	17.2034	-12.9532	1.12435	1.10483
205.434	17.2658	-12.9456	1.12991	1.1103
206.034	17.2578	-12.9386	1.13448	1.11506
206.635	17.2237	-12.9329	1.13916	1.12001
207.235	17.287	-12.9275	1.14433	1.12588
207.836	17.256	-12.9229	1.15039	1.13199
208.437	17.3025	-12.9173	1.15269	1.13477
209.037	17.2796	-12.9133	1.15979	1.14172
209.6377	17.2913	-12.8958	1.16351	1.14561
210.238	17.1781	-12.8971	1.16553	1.14761
210.839	17.2378	-12.8909	1.1673	1.149696
211.439	17.2131	-12.8868	1.17102	1.15361
212.04	17.2492	-12.8814	1.17524	1.15798
212.641	17.2825	-12.8736	1.17903	1.16206
213.241	17.2858	-12.8672	1.18305	1.16636
213.8418	17.27812	-12.8616	1.18692	1.17101
214.442	17.2936	-12.8541	1.19153	1.17556
215.043	17.19982	-12.8498	1.19488	1.17909
215.644	17.2283	-12.8452	1.196988	1.18114
216.244	17.293	-12.83856	1.20147	1.18591
216.845	17.3196	-12.8307	1.20673	1.19135
217.445	17.2981	-12.8246	1.211	1.19595
218.0459	17.2973	-12.8183	1.21533	1.20024
218.646	17.2809	-12.8141	1.219032	1.204319
219.247	17.2235	-12.8095	1.22173	1.20746
219.848	17.353	-12.8033	1.2248	1.21114
220.448	17.3567	-12.7956	1.22994	1.21668
221.049	17.3177	-12.789	1.23486	1.221806
221.649	17.3359	-12.7826	1.23934	1.22621
222.25	17.33419	-12.7759	1.24418	1.23122
222.851	17.23007	-12.7722	1.24693	1.234141
223.451	17.2719	-12.7676	1.24938	1.236644
224.052	17.2942	-12.7611	1.25393	1.24186
224.652	17.3038	-12.7528	1.26105	1.24927
225.253	17.2571	-12.747	1.26405	1.253065
225.854	17.3173	-12.7411	1.2672	1.25654
226.4541	17.287	-12.7347	1.27079	1.26052
227.055	17.2449	-12.7317	1.27283	1.26287
227.655	17.3732	-12.725	1.27681	1.2668
228.256	17.3819	-12.7176	1.28137	1.27177
228.856	17.3505	-12.7107	1.28686	1.27729
229.457	17.3669	-12.7047	1.291132	1.28182
230.058	17.3388	-12.6994	1.29469	1.28586
230.6582	17.2944	-12.6945	1.2982	1.29003
231.259	17.3441	-12.6889	1.30131	1.29329
231.859	17.4022	-12.6814	1.30588	1.29818
232.46	17.3714	-12.6745	1.310816	1.303689
233.061	17.4096	-12.669	1.31666	1.30993
233.661	17.3359	-12.6625	1.32209	1.31568
234.262	17.2134	-12.6581	1.32749	1.32132
234.8623	17.3143	-12.6537	1.33003	1.32373
235.463	17.3311	-12.6464	1.335842	1.3306
236.063	17.3808	-12.6368	1.340122	1.33524
236.664	17.4561	-12.6299	1.34902	1.34479
237.265	17.4532	-12.6268	1.35387	1.35063
237.865	17.329	-12.6214	1.35916	1.35619
238.466	17.2457	-12.6178	1.36142	1.35885
239.066	17.4675	-12.6051	1.36419	1.3619
239.667	17.462	-12.60269	1.37139	1.36961
240.268	17.4034	-12.5973	1.376835	1.37572
240.868	17.293	-12.5913	1.3806	1.3801
241.469	17.3347	-12.58453	1.38545	1.38544
242.069	17.3014	-12.5799	1.3898	1.39043
242.67	17.236	-12.576	1.39096	1.39197
243.271	17.2244	-12.568	1.39215	1.39343
243.871	17.2163	-12.5611	1.3934	1.394839
244.472	17.1775	-12.5553	1.39423	1.39561
245.072	17.2686	-12.5485	1.39515	1.39679
245.673	17.3327	-12.5429	1.39821	1.39987
246.273	17.2836	-12.539	1.40066	1.40281
246.874	17.4178	-12.5325	1.40389	1.40613
247.475	17.4953	-12.5253	1.40873	1.411388
248.0752	17.3697	-12.5187	1.41452	1.41797
248.676	17.4029	-12.51156	1.4179	1.42171
249.276	17.4187	-12.5059	1.42217	1.426224
249.877	17.3999	-12.5022	1.4295	1.43415
250.478	17.2812	-12.4967	1.43202	1.43732
251.078	17.3296	-12.4907	1.43412	1.43958
251.679	17.4193	-12.4825	1.43725	1.443585
252.2793	17.4091	-12.4764	1.4414	1.448137
252.88	17.4163	-12.4704	1.4453	1.45264
253.48	17.3894	-12.4637	1.44954	1.4573
254.081	17.3342	-12.4612	1.45232	1.46014
254.682	17.4279	-12.4553	1.45586	1.46445
255.282	17.4601	-12.44648	1.46024	1.46946
255.883	17.5186	-12.4389	1.46635	1.47598
256.4834	17.4261	-12.4349	1.47393	1.48498
257.084	17.5044	-12.4304	1.47941	1.49135
257.685	17.2758	-12.4264	1.48398	1.496769
258.285	17.4963	-12.4195	1.49051	1.503781
258.886	17.3936	-12.41283	1.4949	1.509089
259.486	17.4331	-12.4032	1.49951	1.51452
260.087	17.5937	-12.3842	1.5026	1.51819
260.6875	17.4222	-12.3927	1.50844	1.52491
261.288	17.355	-12.3916	1.51154	1.528797
261.889	17.3297	-12.381	1.51333	1.5315
262.489	17.2756	-12.3757	1.515027	1.53304
263.09	17.3462	-12.36337	1.51768	1.53605
263.69	17.2699	-12.3618	1.51913	1.53775
264.291	17.4066	-12.3567	1.52252	1.54127
264.8916	17.45743	-12.3475	1.528013	1.54739
265.492	17.3823	-12.3479	1.53167	1.551875
266.093	17.3649	-12.3402	1.53479	1.55558
266.693	17.5602	-12.335	1.53684	1.55807
267.294	17.5376	-12.3283	1.54946	1.57204
267.895	17.4092	-12.3205	1.55443	1.57849
268.495	17.4233	-12.31394	1.55822	1.5834
269.0957	17.395	-12.3085	1.56202	1.587337
269.696	17.3516	-12.3047	1.56409	1.59006
270.297	17.4766	-12.2984	1.56734	1.59389
270.897	17.45	-12.29079	1.57282	1.60013
271.498	17.4397	-12.2846	1.57711	1.60515
272.099	17.4375	-12.2785	1.58129	1.60999
272.699	17.4506	-12.2714	1.58536	1.61487
273.2998	17.3599	-12.2681	1.58844	1.61852
273.9	17.3734	-12.2635	1.59017	1.62111
274.501	17.4476	-12.2563	1.59425	1.625713
275.102	17.47031	-12.2487	1.600028	1.63253
275.702	17.3927	-12.241	1.60376	1.63741
276.303	17.3838	-12.23643	1.60672	1.64111
276.903	17.5085	-12.232	1.609549	1.64444
277.504	17.389	-12.22616	1.61587	1.65166
278.104	17.4083	-12.2223	1.617983	1.65468
278.705	17.362	-12.2132	1.62098	1.65822
279.306	17.4894	-12.2111	1.62445	1.66211
279.906	17.60235	-12.1958	1.62923	1.66794
280.507	17.2753	-12.1954	1.63537	1.67595
281.107	17.3276	-12.19	1.63939	1.68061
281.708	17.391	-12.1842	1.64062	1.68234
282.309	17.6178	-12.1768	1.6446	1.68697
282.909	17.4523	-12.1695	1.64981	1.69351
283.51	17.4548	-12.1642	1.65354	1.69807
284.11	17.4544	-12.1574	1.65721	1.70287
284.711	17.6362	-12.1538	1.66149	1.70798
285.312	17.277	-12.1532	1.66446	1.71189
285.912	17.5438	-12.142	1.66868	1.71673
286.5127	17.3951	-12.1332	1.67357	1.723
287.113	17.58884	-12.1293	1.67605	1.72609
287.714	17.4424	-12.1236	1.68213	1.73335
288.314	17.4077	-12.1144	1.6845	1.73677
288.915	17.5	-12.1119	1.68699	1.73985
289.516	17.341	-12.1087	1.68884	1.7427
290.116	17.5835	-12.09779	1.69341	1.74823
290.7168	17.4197	-12.0931	1.69834	1.75479
291.317	17.4667	-12.0862	1.70227	1.75962
291.918	17.4744	-12.0791	1.70628	1.764811
292.519	17.3877	-12.0754	1.70927	1.76875
293.119	17.4088	-12.0715	1.71087	1.77088
293.72	17.4529	-12.0643	1.71479	1.77598
294.32	17.4943	-12.0557	1.71969	1.78199
294.9209	17.4666	-12.0504	1.723629	1.78696
295.521	17.4745	-12.044	1.72758	1.79207
296.122	17.4446	-12.0386	1.73133	1.79698
296.723	17.3829	-12.0346	1.73345	1.80005
297.323	17.4898	-12.029	1.73624	1.80365
297.924	17.5259	-12.0211	1.74075	1.80931
298.524	17.4728	-12.0134	1.74569	1.8162
299.125	17.4706	-12.0073	1.74978	1.82136
299.726	17.4762	-12.0016	1.75299	1.82626
300.326	17.4268	-11.9976	1.756125	1.83026
300.927	17.4763	-11.9928	1.75819	1.83327
301.527	17.4753	-11.9859	1.76215	1.83842
302.128	17.5021	-11.978	1.76665	1.844471
302.729	17.4653	-11.9722	1.7706	1.84989
303.3291	17.4665	-11.9658	1.77406	1.85497
303.93	17.4514	-11.9591	1.77759	1.86014
304.53	17.3314	-11.9562	1.77981	1.86315
305.131	17.5085	-11.9495	1.78274	1.86682
305.731	17.5252	-11.9421	1.78732	1.87313
306.332	17.4918	-11.9364	1.79162	1.87934
306.933	17.483	-11.9296	1.79542	1.884737
307.5332	17.4949	-11.9237	1.799121	1.89001
308.134	17.4468	-11.919	1.80212	1.89465
308.734	17.4611	-11.91449	1.80401	1.89724
309.335	17.5052	-11.9079	1.808266	1.90237
309.936	17.5018	-11.9001	1.81244	1.9086
310.536	17.48975	-11.8939	1.81615	1.91437
311.137	17.4698	-11.8872	1.82009	1.91961
311.7373	17.4419	-11.8821	1.8232	1.92444
312.338	17.4032	-11.87731	1.825586	1.92823
312.938	17.388	-11.8725	1.82842	1.93227
313.539	17.4969	-11.8645	1.83242	1.93788
314.14	17.4908	-11.857	1.83661	1.943995
314.74	17.4855	-11.8519	1.84024	1.9494
315.341	17.4871	-11.8451	1.84391	1.95448
315.941	17.449	-11.8399	1.84696	1.95942
316.542	17.4481	-11.8367	1.84846	1.96181
317.143	17.4734	-11.8298	1.85245	1.96734
317.743	17.5162	-11.82182	1.85676	1.97328
318.344	17.4973	-11.8171	1.86028	1.97914
318.944	17.4957	-11.8106	1.86369	1.98466
319.545	17.463	-11.8044	1.86707	1.989872
320.146	17.4119	-11.7995	1.86976	1.99374
320.746	17.4322	-11.7946	1.872285	1.99725
321.347	17.4743	-11.787	1.87584	2.00266
321.947	17.4951	-11.7792	1.88013	2.00903
322.548	17.4773	-11.7737	1.88355	2.01443
323.148	17.4689	-11.7681	1.88698	2.01983
323.749	17.4559	-11.7619	1.89026	2.025182
324.35	17.3775	-11.7582	1.89245	2.02876
324.9502	17.476	-11.7511	1.8951	2.03292
325.551	17.5143	-11.7436	1.89912	2.038619
326.151	17.49708	-11.73742	1.90308	2.04497
326.752	17.4948	-11.7318	1.90652	2.05036
327.353	17.485	-11.7252	1.90978	2.05591
327.953	17.4252	-11.7208	1.91294	2.06117
328.554	17.4365	-11.7164	1.91478	2.06432
329.1543	17.4586	-11.70944	1.91845	2.06993
329.755	17.4975	-11.7018	1.922434	2.0763
330.355	17.4988	-11.696	1.92609	2.08217
330.956	17.46464	-11.6902	1.92911	2.08762
331.557	17.4245	-11.6846	1.93213	2.09237
332.157	17.383	-11.6802	1.933892	2.09555
332.758	17.5042	-11.6736	1.93664	2.099869
333.3584	17.4839	-11.6669	1.94064	2.10602
333.959	17.4728	-11.6599	1.9447	2.11312
334.56	17.4816	-11.653	1.94797	2.11875
335.16	17.4447	-11.648	1.95081	2.1237
335.761	17.3878	-11.6432	1.95293	2.127743
336.361	17.4684	-11.6375	1.95564	2.13232
336.962	17.5183	-11.6305	1.95957	2.13845
337.5625	17.5016	-11.6236	1.96321	2.14482
338.163	17.48173	-11.61765	1.96632	2.15054
338.764	17.4645	-11.6111	1.96937	2.15597
339.364	17.4135	-11.6065	1.972	2.16074
339.965	17.4263	-11.6021	1.97387	2.163851
340.565	17.44688	-11.5957	1.97689	2.16959
341.166	17.4848	-11.5869	1.980875	2.17597
341.7666	17.4779	-11.5822	1.98396	2.18148
342.367	17.4596	-11.5757	1.98721	2.18775
342.968	17.4313	-11.5698	1.99007	2.192914
343.568	17.36096	-11.566	1.99193	2.197093
344.169	17.5044	-11.5597	1.994432	2.20139
344.77	17.4863	-11.5526	1.998	2.20788
345.37	17.4721	-11.54568	2.00173	2.2149
345.9707	17.4175	-11.539	2.006577	2.22397
346.571	17.5498	-11.53328	2.00903	2.228833
347.172	17.3074	-11.5292	2.01081	2.23303
347.772	17.5039	-11.5199	2.013	2.23602
348.373	17.3818	-11.5182	2.01542	2.24114
348.974	17.4686	-11.5099	2.01855	2.24668
349.574	17.4625	-11.5037	2.02162	2.25296
350.1748	17.4822	-11.4943	2.02581	2.26062
350.775	17.3749	-11.4921	2.02693	2.26469
351.376	17.39967	-11.4891	2.028306	2.26757
351.977	17.4865	-11.4819	2.0316	2.2731
352.577	17.3796	-11.47301	2.0359	2.28166
353.178	17.4633	-11.4675	2.03783	2.28577
353.778	17.4389	-11.46153	2.041116	2.29239
354.379	17.4223	-11.4555	2.04333	2.29731
354.979	17.3956	-11.4514	2.04542	2.30184
355.58	17.4305	-11.4457	2.04729	2.3059
356.181	17.4947	-11.43859	2.050226	2.3117
356.781	17.4754	-11.4318	2.05356	2.31886
357.382	17.4594	-11.4254	2.05622	2.32479
357.982	17.4325	-11.4206	2.05874	2.33026
358.583	17.3652	-11.4158	2.06048	2.33459
359.184	17.4442	-11.4098	2.06248	2.33882
359.784	17.4596	-11.4016	2.06575	2.34595
360.385	17.4397	-11.3955	2.06853	2.352468
360.985	17.4332	-11.3892	2.07091	2.358645
361.586	17.4361	-11.3834	2.07317	2.36445
362.187	17.3692	-11.378	2.07528	2.37023
362.787	17.38843	-11.3737	2.07652	2.37334
363.3877	17.4301	-11.3675	2.07924	2.37945
363.988	17.464	-11.35897	2.082	2.38677
364.589	17.4347	-11.3541	2.08318	2.39276
365.189	17.4502	-11.347	2.08095	2.39886
365.79	17.4143	-11.3422	2.08288	2.40461
366.391	17.3512	-11.3378	2.08401	2.40906
366.991	17.4445	-11.3318	2.08585	2.41334
367.5918	17.4751	-11.325	2.08867	2.41977
368.192	17.4384	-11.31765	2.09148	2.42737
368.793	17.4183	-11.3117	2.09379	2.43404
369.394	17.4118	-11.3055	2.09561	2.43964
369.994	17.3798	-11.2999	2.09663	2.44457
370.595	17.4104	-11.2955	2.09698	2.44865
371.195	17.3916	-11.289	2.099653	2.45552
371.7959	17.4369	-11.2793	2.1031	2.46388
372.396	17.4128	-11.2748	2.10431	2.469054
372.997	17.4253	-11.2694	2.10645	2.47481
373.598	17.4528	-11.2617	2.10888	2.48145
374.198	17.2865	-11.2595	2.10976	2.48594
374.799	17.4167	-11.2533	2.11132	2.48984
375.399	17.4729	-11.2459	2.114	2.4962
376	17.4208	-11.2396	2.11653	2.50343
376.601	17.4296	-11.2333	2.11857	2.51014
377.201	17.4102	-11.22683	2.12077	2.5165
377.802	17.3669	-11.2227	2.12239	2.52204
378.402	17.3305	-11.2182	2.12349	2.52606
379.003	17.4162	-11.2114	2.1254	2.5316
379.604	17.4342	-11.2034	2.12813	2.53879
380.2041	17.3963	-11.1975	2.1303	2.54576
380.805	17.3453	-11.192	2.1321	2.55278
381.405	17.3683	-11.1853	2.13387	2.55882
382.006	17.3338	-11.1805	2.13517	2.56382
382.606	17.3592	-11.1752	2.13662	2.56794
383.207	17.399	-11.1683	2.13873	2.57452
383.808	17.4272	-11.1615	2.14089	2.58178
384.4082	17.4026	-11.1557	2.14261	2.58836
385.009	17.3923	-11.1489	2.1444	2.59496
385.609	17.3779	-11.1437	2.14601	2.60085
386.21	17.3074	-11.1392	2.14696	2.60575
386.811	17.3799	-11.1336	2.14818	2.610431
387.411	17.4186	-11.1258	2.15026	2.6175
388.012	17.3932	-11.1193	2.15211	2.62484
388.6123	17.3704	-11.1129	2.1539	2.63196
389.213	17.38096	-11.1065	2.15521	2.63805
389.813	17.3157	-11.10192	2.156352	2.64416
390.414	17.336	-11.0975	2.15696	2.64747
391.015	17.3495	-11.09079	2.15882	2.65353
391.615	17.3904	-11.0837	2.16065	2.66134
392.216	17.3662	-11.0764	2.16213	2.66799
392.816	17.3564	-11.0717	2.16334	2.67498
393.417	17.3359	-11.0663	2.16436	2.68077
394.018	17.29385	-11.0609	2.16527	2.68559
394.618	17.38	-11.0556	2.166398	2.69086
395.219	17.3959	-11.0484	2.168	2.69761
395.819	17.3521	-11.0418	2.16958	2.70598
396.42	17.3562	-11.0348	2.17088	2.712755
397.021	17.3469	-11.0284	2.17169	2.71929
397.621	17.30043	-11.02414	2.1726	2.72495
398.222	17.312	-11.02	2.1729	2.72915
398.822	17.3444	-11.01295	2.17443	2.73522
399.423	17.3559	-11.0059	2.17593	2.74285
400.023	17.34045	-10.9996	2.17717	2.75012
400.624	17.3164	-10.99337	2.17799	2.75707
401.225	17.3193	-10.987	2.17928	2.76366
401.8252	17.2546	-10.9823	2.17988	2.76913
402.426	17.2844	-10.97742	2.180491	2.77281
403.026	17.3865	-10.9738	2.18169	2.77924
403.627	17.3283	-10.96336	2.18327	2.78741
404.228	17.3397	-10.9568	2.18449	2.79485
404.828	17.3103	-10.9506	2.18517	2.8016
405.429	17.2877	-10.9459	2.18609	2.80774
406.0293	17.2355	-10.9417	2.18642	2.81244
406.63	17.3874	-10.9352	2.18728	2.81761
407.23	17.3458	-10.92742	2.18844	2.82496
407.831	17.2882	-10.9212	2.18981	2.83288
408.432	17.2869	-10.9152	2.190371	2.83988
409.032	17.2747	-10.909	2.19126	2.84655
409.633	17.2503	-10.9045	2.19179	2.85217
410.2334	17.2731	-10.8986	2.1921	2.85627
410.834	17.2856	-10.8927	2.19325	2.862514
411.435	17.2972	-10.8855	2.19451	2.87045
412.035	17.2727	-10.87901	2.19518	2.87779
412.636	17.2672	-10.8729	2.1958	2.88457
413.236	17.2533	-10.8671	2.19636	2.890732
413.837	17.2277	-10.8622	2.19673	2.89632
414.4375	17.251	-10.8572	2.197305	2.90168
415.038	17.3206	-10.84938	2.19823	2.90864
415.639	17.267	-10.8437	2.19919	2.9166
416.239	17.2722	-10.8369	2.19978	2.92368
416.84	17.2441	-10.8307	2.2001	2.9303
417.44	17.2064	-10.8227	2.20103	2.93884
418.041	17.0911	-10.8224	2.200057	2.94125
418.6416	17.2401	-10.8146	2.20126	2.94695
419.242	17.2495	-10.8071	2.20212	2.95449
419.843	17.2364	-10.8014	2.20241	2.96174
420.443	17.2155	-10.795	2.20305	2.96911
421.044	17.2117	-10.789	2.20338	2.97581
421.645	17.1721	-10.7837	2.20342	2.98128
422.245	17.1967	-10.7788	2.20394	2.98613
422.8457	17.2129	-10.7721	2.20461	2.99327
423.446	17.25659	-10.763	2.20587	3.003768
424.047	17.16786	-10.7581	2.20529	3.01066
424.647	17.19171	-10.7528	2.20594	3.01589
425.248	17.1681	-10.7473	2.20617	3.02232
425.849	17.1224	-10.7432	2.20619	3.02711
426.449	17.2024	-10.737	2.20673	3.03237
427.0498	17.1882	-10.72973	2.20705	3.03974
427.65	17.1816	-10.7236	2.20768	3.0481
428.251	17.1746	-10.71645	2.20798	3.05492
428.852	17.1392	-10.7108	2.20833	3.06162
429.452	17.1026	-10.7067	2.208307	3.06715
430.053	17.0681	-10.6997	2.209	3.07415
430.653	17.0877	-10.695	2.20931	3.08063
431.254	17.1548	-10.6871	2.20963	3.08717
431.854	17.1523	-10.6807	2.209677	3.09422
432.455	17.1474	-10.67489	2.20963	3.10124
433.056	17.1176	-10.6687	2.20992	3.10822
433.656	17.0416	-10.6651	2.20961	3.11255
434.257	17.15181	-10.6582	2.21017	3.11833
434.857	17.1568	-10.6511	2.21081	3.12611
435.458	17.1196	-10.6446	2.21044	3.13331
436.059	17.1013	-10.6391	2.21072	3.14021
436.659	17.1707	-10.6318	2.211	3.14603
437.26	17.01663	-10.628	2.2107	3.15181
437.86	17.0871	-10.6199	2.21137	3.15707
438.461	17.0713	-10.6158	2.21139	3.16367
439.062	17.0869	-10.6092	2.21167	3.17069
439.662	17.0709	-10.6029	2.21203	3.17861
440.2627	17.0011	-10.5962	2.21231	3.18783
440.863	17.0172	-10.5912	2.212	3.19237
441.464	16.9809	-10.586	2.21198	3.19719
442.064	17.0628	-10.5813	2.21225	3.20227
442.665	17.0441	-10.5739	2.21254	3.21079
443.266	16.9308	-10.5627	2.21194	3.21651
443.866	17.023	-10.5585	2.21222	3.21986
444.4668	16.9475	-10.556	2.21219	3.22406
445.067	16.98	-10.5504	2.21224	3.2268
445.668	17.1181	-10.5452	2.21384	3.236623
446.269	17.0231	-10.5409	2.21417	3.25219
446.869	16.919	-10.5329	2.21328	3.25998
447.47	16.9172	-10.5294	2.21367	3.26489
448.07	16.679	-10.5282	2.21233	3.26697
448.6709	16.5748	-10.5296	2.21135	3.2669
449.271	16.5194	-10.531	2.21107	3.26649
449.872	16.4558	-10.5317	2.21078	3.26635
450.473	16.5337	-10.5295	2.21102	3.266993
451.073	16.51162	-10.5295	2.210779	3.26698
451.674	16.5237	-10.5298	2.2108	3.26702
452.274	16.5272	-10.5295	2.21084	3.26744
452.875	16.4283	-10.5311	2.2105	3.26732
453.476	16.37841	-10.5304	2.21013	3.26703
454.076	16.3848	-10.53	2.21017	3.26696
454.677	16.4663	-10.5292	2.21049	3.26764
455.277	16.4559	-10.5302	2.210506	3.26759
455.878	16.4923	-10.529	2.21077	3.26771
456.479	16.452	-10.5299	2.21041	3.26755
457.0791	16.2972	-10.5311	2.20977	3.26678
457.68	16.3361	-10.5314	2.20971	3.26647
458.28	16.3378	-10.5297	2.21008	3.26689
458.881	16.4193	-10.53014	2.21045	3.26737
459.481	16.42222	-10.52938	2.21043	3.267709
460.082	16.4384	-10.5292	2.2105	3.2678
460.683	16.3811	-10.5302	2.2102	3.26781
461.2832	16.33493	-10.5306	2.20954	3.26683
461.884	16.3238	-10.5306	2.20952	3.26709
462.484	16.3897	-10.5298	2.210043	3.26738
463.085	16.3941	-10.5294	2.21007	3.26724
463.686	16.4164	-10.5298	2.20491	3.26752
464.286	16.4477	-10.5289	2.20639	3.26751
464.887	16.2765	-10.5304	2.19059	3.26715
465.4873	16.2751	-10.5323	2.19524	3.2665
466.088	16.308	-10.5307	2.11142	3.26695
466.688	16.3503	-10.5305	1.44195	3.26747
467.289	16.36002	-10.5299	1.675416	3.26795
467.89	16.375	-10.53	1.7902	3.26806
468.49	16.3665	-10.5289	1.80759	3.267988
469.091	16.2166	-10.5303	1.73653	3.26731
469.691	16.2773	-10.5312	1.7761	3.26725
470.292	16.3023	-10.5316	1.72182	3.26715
470.893	16.3405	-10.5302	1.66856	3.26741
471.493	16.3703	-10.5293	2.58665	3.26768
472.094	16.3872	-10.5296	-0.501347	3.26762
472.694	16.314	-10.5301	1.13754	3.26728
473.295	16.2441	-10.53095	0.947734	3.26705
473.896	16.2746	-10.5302	0.947486	3.26702
474.496	16.2812	-10.53088	0.947173	3.26707
475.097	16.331	-10.53046	0.947557	3.26749
475.697	16.3733	-10.5296	0.947523	3.26781
476.298	16.3124	-10.52967	0.94761	3.26787
476.898	16.2382	-10.5313	0.947841	3.26733
477.499	16.2548	-10.5309	0.947824	3.26733
478.1	16.304	-10.5303	0.947812	3.26766
478.7002	16.3058	-10.53	0.94814	3.26767
479.301	16.323	-10.5298	0.948151	3.26795
479.901	16.3755	-10.5294	0.94815	3.26786
480.502	16.2726	-10.5289	0.948567	3.26749
481.103	16.193	-10.5314	0.948485	3.26664
481.703	16.2379	-10.5309	0.948433	3.26655
482.304	16.3039	-10.5308	0.94847	3.26708
482.9043	16.7682	-10.523	0.94848	3.26981
483.505	17.01689	-10.5205	0.948777	3.2738
484.105	16.893	-10.5092	0.948819	3.28174
484.706	16.8658	-10.5072	0.948793	3.28322
485.307	17.0066	-10.4996	0.9490937	3.28864
485.907	16.9996	-10.4934	0.949091	3.29534
486.508	17.0374	-10.4898	0.9491443	3.30432
487.1084	16.9471	-10.48237	0.949148	3.3113
487.709	16.8823	-10.4751	0.949134	3.32168
488.31	16.8793	-10.4687	0.949418	3.32442
488.91	17.10063	-10.4597	0.949405	3.32926
489.511	16.7907	-10.4497	0.949461	3.33818
490.111	16.9106	-10.45045	0.949402	3.34475
490.712	16.7996	-10.44992	0.949716	3.34927
491.3125	16.736	-10.4413	0.9496994	3.35072
491.913	16.8189	-10.4362	0.949668	3.35288
492.514	17.0339	-10.4285	0.9496904	3.367851
493.114	16.8487	-10.4223	0.949677	3.37696
493.715	16.87393	-10.4169	0.9496367	3.38727
494.315	16.7681	-10.4095	0.949639	3.393671
494.916	16.9407	-10.4021	0.949693	3.39798
495.5166	16.9103	-10.394	0.949723	3.40669
496.117	16.79871	-10.3914	0.9500581	3.41118
496.718	16.8331	-10.38693	0.950124	3.41673
497.318	16.8673	-10.37995	0.950114	3.42325
497.919	16.7355	-10.3739	0.9501152	3.43264
498.52	16.74412	-10.3711	0.950109	3.43728
499.12	16.7006	-10.3549	0.950381	3.44025
499.7207	16.6816	-10.3552	0.9503364	3.44197
500.321	16.85	-10.3495	0.950328	3.45414
500.922	16.8389	-10.34368	0.950358	3.46531
501.522	16.7482	-10.3415	0.950362	3.47202
502.123	16.8286	-10.3349	0.95031	3.47776
502.724	16.7212	-10.3301	0.950344	3.48477
503.324	16.7582	-10.3114	0.950322	3.48997
503.9248	16.78965	-10.31551	0.950294	3.49651
504.525	16.68684	-10.2999	0.950362	3.50375
505.126	16.5842	-10.3018	0.950341	3.514853
505.727	16.7184	-10.29516	0.950575	3.51948
506.327	16.6316	-10.2894	0.950647	3.52746
506.928	16.6984	-10.2834	0.950582	3.53304
507.528	16.76943	-10.27992	0.950625	3.53941
508.129	16.6675	-10.2708	0.9506129	3.5459
508.729	16.6924	-10.2628	0.950923	3.5529
509.33	16.6539	-10.2603	0.950627	3.55865
509.931	16.6873	-10.2528	0.950611	3.56525
510.531	16.6294	-10.2456	0.950887	3.5722
511.132	16.6503	-10.2454	0.95057	3.575459
511.732	16.66054	-10.2374	0.950808	3.58457
512.333	16.6387	-10.23159	0.95052	3.58949
512.934	16.5752	-10.2195	0.950787	3.59413
513.534	16.6557	-10.2176	0.950775	3.599231
514.135	16.61636	-10.21159	0.950794	3.61671
514.735	16.467	-10.2064	0.950781	3.62106
515.336	16.4931	-10.2006	0.950817	3.6276
515.937	16.69562	-10.1946	0.950822	3.633779
516.537	16.3709	-10.188	0.950845	3.64285
517.1377	16.5752	-10.1864	0.950884	3.64629
517.738	16.5613	-10.1759	0.950928	3.6522
518.339	16.5624	-10.1701	0.951157	3.65954
518.939	16.5679	-10.163	0.951177	3.66646
519.54	16.657	-10.1571	0.95116	3.6738
520.141	16.5339	-10.1516	0.951182	3.68083
520.741	16.3898	-10.1478	0.951181	3.68959
521.3418	16.6467	-10.1416	0.951091	3.69412
521.942	16.38632	-10.133	0.951136	3.703126
522.543	16.4796	-10.1277	0.951109	3.70653
523.144	16.4629	-10.1216	0.951079	3.71344
523.744	16.4839	-10.1148	0.951109	3.72044
524.345	16.432	-10.1098	0.951129	3.72718
524.945	16.4457	-10.1038	0.951101	3.732408
525.5459	16.4117	-10.09821	0.951413	3.74272
526.146	16.3924	-10.0914	0.9514246	3.74722
526.747	16.4252	-10.0853	0.951148	3.75372
527.348	16.4167	-10.0799	0.951491	3.76069
527.948	16.4022	-10.0728	0.95118	3.76811
528.549	16.3446	-10.0675	0.951521	3.77432
529.149	16.58547	-10.0619	0.951557	3.77958
529.75	16.3784	-10.0552	0.951555	3.792
530.351	16.2837	-10.0495	0.951589	3.79587
530.951	16.3567	-10.0436	0.951558	3.80163
531.552	16.3456	-10.0373	0.95157	3.80833
532.152	16.33885	-10.0307	0.951563	3.81538
532.753	16.2864	-10.0266	0.9515906	3.82114
533.354	16.4752	-10.0199	0.951595	3.82759
533.9541	16.1753	-10.01399	0.951568	3.83578
534.555	16.1261	-10.0085	0.951548	3.84403
535.155	16.2557	-10.0023	0.951504	3.84918
535.756	16.2631	-9.9959	0.951566	3.85528
536.356	16.2044	-9.99043	0.951546	3.86096
536.957	16.2675	-9.98448	0.951517	3.86705
537.558	16.2524	-9.97766	0.951817	3.87466
538.1582	16.24044	-9.97228	0.951808	3.88182
538.759	16.30122	-9.966	0.951809	3.888814
539.359	16.2479	-9.957406	0.9518	3.902055
539.96	16.1433	-9.95066	0.951799	3.91055
540.561	16.2685	-9.94495	0.951776	3.91269
541.161	16.051	-9.94083	0.951769	3.92093
541.762	16.1272	-9.93416	0.951765	3.92399
542.3623	16.161	-9.92882	0.952057	3.92948
542.963	16.0181	-9.92262	0.952114	3.94014
543.563	16.0983	-9.91522	0.951831	3.94571
544.164	16.0371	-9.91118	0.952086	3.95124
544.765	16.1637	-9.90893	0.951854	3.95612
545.365	15.9755	-9.89968	0.952118	3.96352
545.966	16.06988	-9.89304	0.952133	3.96941
546.566	16.0689	-9.88737	0.952136	3.97643
547.167	16.0756	-9.88096	0.952128	3.98348
547.768	16.05061	-9.87521	0.952098	3.99082
548.368	16.0081	-9.86926	0.952114	3.99695
548.969	16.02467	-9.86388	0.952139	4.00277
549.569	16.0251	-9.85759	0.952109	4.00973
550.17	16.0132	-9.85173	0.952155	4.01737
550.771	16.0279	-9.84502	0.952111	4.02457
551.371	15.998	-9.83887	0.952089	4.03166
551.972	15.96896	-9.83302	0.952041	4.0383
552.572	15.9293	-9.82745	0.952029	4.04368
553.173	15.9576	-9.82119	0.952012	4.050313
553.773	15.9436	-9.81547	0.952067	4.05707
554.374	15.9038	-9.80917	0.952051	4.06453
554.975	15.9084	-9.80264	0.952289	4.071609
555.5752	15.8882	-9.79688	0.952361	4.07935
556.176	15.8153	-9.79086	0.95208	4.08603
556.776	15.8682	-9.78497	0.952363	4.091567
557.377	15.8526	-9.7796	0.952406	4.09807
557.978	15.8505	-9.77301	0.9523778	4.10537
558.578	15.8356	-9.7667	0.9524	4.11237
559.179	15.8281	-9.76057	0.952344	4.11969
559.7793	15.827	-9.75467	0.952383	4.12664
560.38	15.7604	-9.74857	0.952366	4.13305
560.98	15.76993	-9.74358	0.95235	4.13853
561.581	15.7945	-9.7373	0.952374	4.14552
562.182	15.7524	-9.73082	0.952324	4.15313
562.782	15.7439	-9.72504	0.952334	4.159905
563.383	15.72963	-9.71968	0.952617	4.16669
563.9834	15.7056	-9.71189	0.952295	4.173645
564.584	15.6349	-9.70746	0.952364	4.17975
565.185	15.6901	-9.70235	0.952327	4.18588
565.785	15.695	-9.6951	0.952341	4.19268
566.386	15.6659	-9.68933	0.952722	4.200448
566.986	15.6542	-9.68358	0.952708	4.20794
567.587	15.6311	-9.67668	0.952719	4.21505
568.1875	15.6354	-9.66964	0.95272	4.22211
568.788	15.5682	-9.66587	0.952435	4.227591
569.389	15.6206	-9.659481	0.952752	4.23432
569.989	15.5913	-9.652688	0.95274	4.24187
570.59	15.5742	-9.64755	0.952715	4.24914
571.19	15.5483	-9.64139	0.952714	4.25601
571.791	15.5387	-9.63485	0.952711	4.26272
572.3916	15.5015	-9.6287	0.9527005	4.26933
572.992	15.5134	-9.6223	0.952653	4.27473
573.593	15.4937	-9.61731	0.952689	4.28178
574.193	15.4472	-9.61448	0.952677	4.287569
574.794	15.5144	-9.60451	0.952708	4.2942
575.395	15.35238	-9.58987	0.952745	4.30112
575.995	15.3293	-9.59111	0.952726	4.31409
576.5957	15.3412	-9.58702	0.952783	4.31784
577.196	15.3711	-9.580759	0.952786	4.32332
577.797	15.3764	-9.575573	0.952785	4.32979
578.397	15.38202	-9.56856	0.952729	4.33741
578.998	15.36652	-9.56306	0.952775	4.34437
579.599	15.347	-9.55761	0.952689	4.35136
580.199	15.3248	-9.55077	0.952723	4.35768
580.7998	15.2914	-9.54509	0.952675	4.36359
581.4	15.3187	-9.53927	0.952685	4.36984
582.001	15.3585	-9.53227	0.952618	4.37757
582.602	15.25266	-9.52689	0.9526009	4.384768
583.202	15.2401	-9.52035	0.952901	4.39152
583.803	15.2264	-9.51502	0.952963	4.39853
584.403	15.1692	-9.508935	0.952994	4.40498
585.004	15.1847	-9.50362	0.9529478	4.411159
585.604	15.2036	-9.49645	0.953001	4.4185
586.205	15.1738	-9.49072	0.953004	4.42528
586.806	15.1569	-9.48524	0.95304	4.43282
587.406	15.1386	-9.47871	0.953032	4.44002
588.007	15.1145	-9.47145	0.95306	4.44734
588.607	15.1048	-9.46753	0.953045	4.45293
589.208	15.0913	-9.46109	0.953033	4.459
589.809	15.0953	-9.4549	0.953001	4.46655
590.409	15.0687	-9.44883	0.9530192	4.47323
591.01	15.0514	-9.44317	0.952985	4.48022
591.61	15.0122	-9.43621	0.952974	4.48784
592.211	14.9878	-9.430336	0.952971	4.494122
592.812	14.9868	-9.4253	0.952939	4.49962
593.412	14.9588	-9.41861	0.952988	4.50654
594.0127	14.9603	-9.41295	0.952945	4.51393
594.613	14.93041	-9.40708	0.95295	4.52082
595.214	14.9284	-9.40106	0.952973	4.52786
595.814	14.8886	-9.39489	0.95292	4.53558
596.415	14.8697	-9.38887	0.952906	4.54199
597.016	14.8762	-9.38239	0.952978	4.54785
597.616	14.845	-9.37688	0.952964	4.555006
598.2168	14.8404	-9.37065	0.953006	4.56264
598.817	14.8201	-9.36461	0.953437	4.56976
599.418	14.8166	-9.35873	0.953438	4.57686
600.019	14.7951	-9.35602	0.953414	4.58463
600.619	14.6503	-9.34773	0.953396	4.59094
601.22	14.7753	-9.34085	0.95344	4.59603
601.82	14.7573	-9.33441	0.952997	4.60346
602.4209	14.7057	-9.32884	0.953377	4.61104
603.021	14.6722	-9.32324	0.953394	4.61792
603.622	14.6722	-9.31654	0.953356	4.6249
604.223	14.6393	-9.30985	0.95339	4.6318
604.823	14.6297	-9.30512	0.953422	4.63725
605.424	14.6321	-9.29863	0.953372	4.64396
606.024	14.6117	-9.29292	0.9534	4.65134
606.625	14.5776	-9.28655	0.953393	4.65839
607.226	14.56859	-9.2813	0.953388	4.665453
607.826	14.5575	-9.274622	0.953379	4.67302
608.427	14.52644	-9.268878	0.9533813	4.68007
609.027	14.5146	-9.26243	0.953412	4.68529
609.628	14.4936	-9.25687	0.953445	4.69237
610.229	14.48027	-9.25092	0.953452	4.6995
610.8291	14.4635	-9.24457	0.953436	4.70694
611.43	14.4228	-9.23884	0.953479	4.71446
612.03	14.4156	-9.23195	0.9534598	4.72123
612.631	14.3683	-9.22666	0.953461	4.72735
613.231	14.3641	-9.22066	0.95344	4.73347
613.832	14.3434	-9.2145	0.953455	4.74071
614.433	14.3023	-9.20784	0.953453	4.74824
615.0332	14.3173	-9.20208	0.953448	4.75569
615.634	14.285	-9.196784	0.95341	4.76254
616.234	14.2744	-9.190506	0.953419	4.76919
616.835	14.2226	-9.18459	0.953376	4.77523
617.436	14.2505	-9.17846	0.95332	4.781477
618.036	14.2015	-9.17268	0.953336	4.78839
618.637	14.2009	-9.16659	0.953327	4.7954
619.2373	14.1804	-9.16052	0.953325	4.8024
619.838	14.1574	-9.15474	0.953602	4.81003
620.438	14.1181	-9.14842	0.9536376	4.816813
621.039	14.1186	-9.14236	0.953613	4.82305
621.64	14.0925	-9.13641	0.953623	4.83032
622.24	14.0619	-9.13035	0.9536382	4.83774
622.841	14.02296	-9.1248	0.953652	4.8451
623.441	14.0191	-9.117712	0.9536736	4.8522
624.042	13.9834	-9.11175	0.953686	4.85981
624.643	13.93983	-9.10688	0.953665	4.865716
625.243	13.9741	-9.10104	0.95363	4.87205
625.844	13.931	-9.0948	0.953662	4.87935
626.444	13.9219	-9.08831	0.953674	4.88633
627.045	13.8921	-9.08232	0.953653	4.89329
627.646	13.8778	-9.075799	0.953683	4.90025
628.246	13.8446	-9.06988	0.953665	4.90745
628.847	13.8218	-9.0648	0.9536249	4.91318
629.447	13.8035	-9.05879	0.953628	4.92029
630.048	13.7846	-9.05242	0.953667	4.9273
630.648	13.7648	-9.0464	0.953647	4.93416
631.249	13.7327	-9.04075	0.953653	4.94182
631.85	13.7146	-9.03343	0.9536258	4.94865
632.4502	13.6704	-9.02776	0.95368	4.95563
633.051	13.6691	-9.02226	0.953693	4.96159
633.651	13.62501	-9.01674	0.953694	4.969151
634.252	13.6098	-9.01031	0.953758	4.97622
634.853	13.6023	-9.005064	0.954023	4.98354
635.453	13.5761	-8.99806	0.953691	4.9906
636.054	13.5531	-8.99205	0.953733	4.99724
636.6543	13.5094	-8.98592	0.9537	5.004148
637.255	13.4872	-8.98031	0.953696	5.01021
637.855	13.4867	-8.97409	0.953982	5.01713
638.456	13.4575	-8.96832	0.953689	5.02471
639.057	13.4362	-8.96276	0.953984	5.0319
639.657	13.4041	-8.95659	0.953685	5.03941
640.258	13.3677	-8.9506	0.953736	5.04627
640.8584	13.3009	-8.94455	0.953947	5.052947
641.459	13.32459	-8.93885	0.953673	5.05907
642.06	13.3044	-8.9321	0.953938	5.06585
642.66	13.2692	-8.92659	0.953681	5.07422
643.261	13.2372	-8.92002	0.953685	5.08126
643.861	13.1988	-8.91299	0.953961	5.08902
644.462	13.16929	-8.9082	0.953684	5.09545
645.0625	13.172	-8.90245	0.953998	5.10147
645.663	13.1282	-8.89651	0.953991	5.10862
646.264	13.1343	-8.89036	0.95373	5.1157
646.864	13.1005	-8.883997	0.953981	5.12322
647.465	13.0584	-8.87795	0.953649	5.1305
648.065	13.0302	-8.87259	0.954002	5.13751
648.666	12.9867	-8.86616	0.953939	5.14445
649.2666	12.9689	-8.85988	0.953946	5.15008
649.867	12.9342	-8.85427	0.953616	5.15741
650.468	12.9098	-8.84806	0.953904	5.16464
651.068	12.8789	-8.84214	0.95393	5.17187
651.669	12.8347	-8.83636	0.953933	5.17909
652.27	12.7881	-8.83012	0.953915	5.18668
652.87	12.7487	-8.82389	0.953908	5.1937
653.4707	12.7202	-8.81822	0.953888	5.1992
654.071	12.7076	-8.81191	0.9538973	5.20689
654.672	12.6723	-8.805	0.953918	5.2145
655.272	12.6214	-8.80055	0.953882	5.22182
655.873	12.5297	-8.79399	0.953863	5.22977
656.474	12.4533	-8.788	0.953895	5.237587
657.074	12.3482	-8.782	0.9538902	5.2449
657.6748	12.3236	-8.77622	0.953913	5.25187
658.275	12.2299	-8.77014	0.953914	5.26024
658.876	12.05627	-8.764143	0.953967	5.26953
659.477	11.853	-8.75808	0.953905	5.27915
660.077	11.7169	-8.752039	0.953945	5.2887
660.678	11.5645	-8.74647	0.953969	5.29728
661.278	11.4332	-8.74034	0.95393	5.30492
661.879	11.2501	-8.73388	0.953931	5.31404
662.479	10.9855	-8.72831	0.953949	5.3244
663.08	10.44622	-8.722331	0.953907	5.33833
663.681	7.969223	-8.71733	0.9539389	5.38625
664.281	6.26052	-8.709794	0.953969	5.41043
664.882	5.790987	-8.70476	0.953893	5.436286
665.482	5.43872	-8.698472	0.953897	5.44825
666.083	4.856081	-8.6928	0.953906	5.46545
666.684	3.12739	-8.68608	0.95389	5.51116
667.284	2.843339	-8.68031	0.953835	5.52788
667.885	2.61322	-8.67393	0.953862	5.54089
668.485	2.45668	-8.66786	0.953823	5.55232
669.086	2.31942	-8.661727	0.953828	5.56265
669.687	2.186	-8.65569	0.953861	5.572711
670.287	2.05236	-8.65022	0.953872	5.58397
670.8877	1.90195	-8.64413	0.953825	5.59498
671.488	-0.00788413	-8.63752	0.960521	4.39422
672.089	-0.00908473	-8.63139	1.00235	-0.0656862
672.689	-0.00989623	-8.62573	1.00202	0.139065
673.29	-0.00604389	-8.61976	1.00204	0.212172
673.891	-0.00311958	-8.61384	1.00206	0.260731
674.491	-0.00118872	-8.60795	1.00217	0.302355
675.0918	0.0023846	-8.60221	1.00213	0.3262201
675.692	0.00437663	-8.59659	1.00219	0.342991
676.293	0.003494689	-8.59034	1.00218	0.358871
676.894	0.00190787	-8.58435	1.00216	0.374574
677.494	0.00154406	-8.57803	1.00217	0.386789
678.095	-0.00201685	-8.57154	1.0021	0.395623
678.695	4.778849e-06	-8.56569	1.00215	0.405011
679.2959	-0.000963488	-8.55963	1.00206	0.415689
679.896	-0.0041618	-8.55362	1.00212	0.42351
680.497	-0.00855193	-8.54737	1.002053	0.429058
681.098	-0.0120311	-8.54241	1.00207	0.435766
681.698	-0.01256155	-8.53624	1.00209	0.443738
682.299	-0.00892103	-8.5297	1.00216	0.4501797
682.899	-0.007065624	-8.52345	1.00211	0.454181
683.5	-0.003967993	-8.51824	1.00215	0.459789
684.101	-0.00177809	-8.51121	1.00217	0.465909
684.701	0.00176411	-8.50534	1.00218	0.470579
685.302	0.00293965	-8.49941	1.002178	0.474255
685.902	0.00320242	-8.49417	1.00214	0.478475
686.503	0.00351825	-8.48861	1.00218	0.483962
687.104	0.00114729	-8.48223	1.00211	0.4882223
687.7041	0.0001162116	-8.47507	1.0021	0.490827
688.305	-0.00287276	-8.4691	1.00207	0.494091
688.905	-0.00186364	-8.46323	1.00207	0.498625
689.506	-0.00737832	-8.45819	1.00205	0.50214
690.106	-0.00771976	-8.45224	1.00202	0.504543
690.707	-0.00938729	-8.44575	1.00203	0.507582
691.308	-0.0115961	-8.44028	1.00204	0.511554
691.9082	-0.00944562	-8.43323	1.00206	0.515157
692.509	-0.008464098	-8.42712	1.00205	0.517391
693.109	-0.00363399	-8.421586	1.00201	0.519589
693.71	-0.0011875	-8.41613	1.00204	0.523331
694.311	0.000140985	-8.40994	1.002088	0.526713
694.911	0.0011801	-8.40879	1.00239	0.52833