File: shares/flx_lsms_hydrogen/EXPERIMENTAL_DATA/LABO_SOETE/WP1_TENSILE/AIR/MTS/HYA1/specimen.dat
MTS793|MPT|ENU|1|2|.|/|:|1|0|0|A

Data Acquisition						Time:	15.0215	s	12/20/2021 1:28:43 PM
Time	ESH B Force	ESH B Displacement	Analog In 2	Analog In 1
s	kN	mm	V	V
0.03515625	0.0380992	-15	-0.00196035	-0.00916833
0.884766	0.0410007	-14.99086	-0.00203746	-0.00923338
1.734375	0.052231	-14.98428	-0.00235337	-0.00935334
2.58398	0.0380346	-14.9751	-0.002271961	-0.008853035
3.43359	0.0395038	-14.9658	-0.00239191	-0.0091801
4.2832	0.0669335	-14.9561	-0.00232423	-0.00878265
5.13281	0.0536237	-14.949	-0.00241669	-0.00915848
5.98242	0.0637616	-14.9411	-0.00198944	-0.00891294
6.83203	0.0988008	-14.9312	-0.002027109	-0.00920006
7.68164	0.104959	-14.9243	-0.00172145	-0.00898125
8.53125	0.124623	-14.9143	-0.00177166	-0.00876214
9.38086	0.148556	-14.9097	-0.00177556	-0.00883846
10.2305	0.189388	-14.8989	-0.0014671	-0.008574333
11.0801	0.205186	-14.8882	-0.00117855	-0.00869776
11.9297	0.225688	-14.8811	-0.00120215	-0.00851799
12.7793	0.2738	-14.8731	-0.0012101	-0.008377132
13.6289	0.3061991	-14.8651	-0.000847429	-0.00827306
14.4785	0.360866	-14.8544	-0.000608233	-0.00796619
15.3281	0.419382	-14.8472	-0.000318247	-0.00809691
16.1777	0.474352	-14.837	3.53586e-06	-0.00753115
17.0273	0.501252	-14.8315	0.000259918	-0.00789721
17.877	0.6060074	-14.8222	0.000647504	-0.00706151
18.7266	0.712754	-14.8126	0.000886683	-0.00673429
19.5762	0.80965	-14.8034	0.00119375	-0.00589957
20.4258	0.943702	-14.7947	0.00143721	-0.00556436
21.2754	1.04297	-14.7879	0.00169273	-0.00494386
22.125	1.17776	-14.7803	0.00249208	-0.00410996
22.9746	1.38628	-14.7703	0.003320372	-0.00357328
23.8242	1.57525	-14.7612	0.004056002	-0.00255385
24.6738	1.806913	-14.7593	0.00478114	-0.00208317
25.5234	1.85	-14.746	0.00518557	-0.0014791
26.373	2.13368	-14.736	0.00632953	-0.000803434
27.2227	2.35908	-14.727	0.00733533	0.000226175
28.0723	2.58769	-14.7186	0.00852697	0.00116689
28.9219	2.73547	-14.7109	0.00911612	0.00161913
29.7715	3.01597	-14.7036	0.0103485	0.00266034
30.6211	3.31162	-14.693	0.0118477	0.00374497
31.4707	3.59715	-14.6841	0.0131232	0.004979277
32.3203	3.83132	-14.6769	0.0143771	0.00612143
33.1699	4.03057	-14.6696	0.0151945	0.00664225
34.0195	4.42278	-14.6595	0.0167877	0.00866406
34.8691	4.700428	-14.65116	0.0180098	0.009128402
35.71875	5.03488	-14.6424	0.0198323	0.0109332
36.5684	5.19815	-14.6355	0.0204599	0.0114904
37.418	5.60021	-14.6269	0.0220256	0.0127489
38.2676	5.9473	-14.6181	0.023943	0.0147302
39.1172	6.333612	-14.6088	0.0255271	0.0158044
39.9668	6.65949	-14.6	0.027198	0.0174816
40.8164	6.89361	-14.5929	0.0279985	0.01803983
41.666	7.3337	-14.5837	0.03014045	0.0199921
42.5156	7.78539	-14.5742	0.0320663	0.0218643
43.3652	8.16408	-14.5655	0.0338178	0.0232692
44.2148	8.448844	-14.559	0.0353219	0.024934
45.0645	8.80076	-14.55003	0.0369284	0.0261126
45.9141	9.25559	-14.5401	0.0389535	0.0280589
46.7637	9.65273	-14.5323	0.0411935	0.0302656
47.6133	10.0665	-14.523	0.0432554	0.0315952
48.4629	10.3263	-14.51718	0.0445497	0.03330506
49.3125	10.7287	-14.5071	0.0470207	0.0348671
50.1621	11.1729	-14.4987	0.0494038	0.0375411
51.0117	11.5925	-14.4888	0.0522508	0.0399879
51.8613	11.8917	-14.4815	0.0542975	0.04168421
52.7109	12.1495	-14.4743	0.0562272	0.0439731
53.5605	12.6179	-14.4642	0.0591551	0.0466368
54.4102	12.9385	-14.4551	0.0628743	0.0498759
55.2598	13.2244	-14.4464	0.0655986	0.0525814
56.1094	13.4238	-14.4395	0.0683572	0.055165
56.959	13.72889	-14.4321	0.0714884	0.0580799
57.8086	13.9788	-14.4219	0.0757384	0.0623133
58.6582	14.2328	-14.4128	0.0798917	0.0661648
59.5078	14.4177	-14.4051	0.0839342	0.070483
60.3574	14.5734	-14.3955	0.0881643	0.073943
61.207	14.7632	-14.3864	0.0933711	0.0792872
62.0566	14.8906	-14.3779	0.097669	0.0830441
62.90625	15.0145	-14.3695	0.102433	0.0877826
63.7559	15.026	-14.3621	0.107112	0.0923983
64.6055	15.19606	-14.3548	0.111056	0.0956496
65.4551	15.3106	-14.3445	0.117205	0.101524
66.3047	15.341	-14.33622	0.122931	0.106419
67.1543	15.40268	-14.3277	0.128673	0.111733
68.0039	15.47942	-14.32101	0.13294	0.115419
68.8535	15.557	-14.311	0.139467	0.121119
69.7031	15.57216	-14.3018	0.145943	0.127036
70.5527	15.6258	-14.2924	0.151655	0.131818
71.4023	15.6214	-14.287	0.156367	0.135479
72.252	15.6455	-14.2813	0.160652	0.139567
73.1016	15.7592	-14.2706	0.16733	0.145082
73.9512	15.7449	-14.2617	0.174404	0.151324
74.8008	15.6815	-14.2537	0.181101	0.156971
75.6504	15.7149	-14.2464	0.185948	0.161039
76.5	15.8827	-14.2333	0.192681	0.166916
77.3496	15.748	-14.2255	0.202277	0.175049
78.1992	15.88345	-14.2161	0.20793	0.179905
79.0488	15.7586	-14.2112	0.212003	0.183161
79.8984	15.7978	-14.201	0.220137	0.190653
80.748	15.9593	-14.1925	0.224535	0.193557
81.5977	15.9585	-14.18464	0.230761	0.199327
82.4473	15.9813	-14.17478	0.2372	0.204381
83.2969	15.928	-14.1683	0.24215	0.2086118
84.1465	16.0777	-14.1575	0.24849	0.2139
84.9961	16.0435	-14.14815	0.256759	0.22081
85.8457	16.0193	-14.1405	0.263461	0.226694
86.6953	16.0148	-14.13247	0.268904	0.231373
87.5449	16.0408	-14.1273	0.272591	0.234154
88.3945	16.07354	-14.1179	0.279591	0.240697
89.2441	16.1085	-14.1086	0.286612	0.245988
90.09375	16.1221	-14.0997	0.293386	0.2521973
90.9434	16.0799	-14.0922	0.298761	0.256475
91.793	16.1426	-14.0839	0.304249	0.261333
92.6426	16.1685	-14.0715	0.313874	0.269585
93.4922	16.1633	-14.063	0.320479	0.274862
94.3418	16.093	-14.0568	0.326677	0.280534
95.1914	16.20645	-14.0491	0.329665	0.282587
96.041	16.3112	-14.0384	0.33728	0.289486
96.8906	16.227	-14.0297	0.344661	0.295636
97.7402	16.2469	-14.0226	0.351088	0.300984
98.5898	16.1821	-14.0152	0.35634	0.305412
99.4395	16.2292	-14.0091	0.360556	0.309466
100.289	16.2806	-13.996	0.369658	0.317138
101.139	16.32485	-13.9874	0.376533	0.322949
101.988	16.2768	-13.97938	0.382773	0.3280791
102.838	16.3172	-13.9727	0.387108	0.331799
103.6875	16.3629	-13.9645	0.392256	0.336676
104.537	16.3969	-13.9566	0.398943	0.3421
105.387	16.3866	-13.9468	0.4060269	0.348245
106.236	16.3457	-13.94018	0.41175	0.353253
107.086	16.4039	-13.9316	0.416872	0.357755
107.936	16.40222	-13.9203	0.42644	0.3658447
108.785	16.4639	-13.9096	0.4331744	0.371745
109.635	16.4181	-13.9033	0.438683	0.376365
110.484	16.3166	-13.8987	0.442647	0.3799659
111.334	16.4478	-13.8882	0.4532294	0.389049
112.184	16.3811	-13.8788	0.457903	0.393164
113.0332	16.4978	-13.8692	0.463096	0.397496
113.883	16.4593	-13.8619	0.468838	0.4022136
114.732	16.57618	-13.8531	0.473259	0.406281
115.582	16.4646	-13.8448	0.481671	0.413485
116.432	16.5487	-13.8342	0.488169	0.419324
117.281	16.5882	-13.8263	0.494453	0.424586
118.131	16.4912	-13.8206	0.498726	0.42852
118.98	16.5444	-13.8124	0.504226	0.433253
119.83	16.6013	-13.8041	0.510734	0.438603
120.68	16.64076	-13.7947	0.517344	0.444293
121.5293	16.6241	-13.78554	0.523454	0.450074
122.379	16.6699	-13.7782	0.527993	0.453815
123.229	16.7253	-13.76721	0.5364188	0.461867
124.078	16.6595	-13.7586	0.543298	0.467198
124.928	16.744	-13.749	0.549784	0.4724046
125.777	16.7213	-13.74184	0.555354	0.477621
126.627	16.67341	-13.7354	0.560161	0.481452
127.477	16.7698	-13.7244	0.567526	0.488293
128.326	16.7549	-13.7176	0.573541	0.493435
129.176	16.786	-13.7071	0.58055	0.499638
130.025	16.7068	-13.70137	0.584568	0.503372
130.875	16.7884	-13.691	0.59178	0.50931
131.725	16.8166	-13.6824	0.598535	0.515222
132.574	16.8057	-13.6742	0.6043542	0.520396
133.424	16.8662	-13.6666	0.609827	0.524781
134.273	16.8089	-13.65939	0.613827	0.52892
135.123	16.8963	-13.6498	0.6210252	0.534497
135.973	16.8839	-13.6415	0.62825	0.541038
136.822	16.9149	-13.6316	0.634866	0.547014
137.672	16.8861	-13.6217	0.641585	0.552875
138.521	16.88957	-13.6153	0.646828	0.557558
139.371	16.9504	-13.6049	0.654115	0.563509
140.2207	16.9683	-13.5971	0.660015	0.568833
141.07	16.9257	-13.5881	0.666273	0.574188
141.92	16.9257	-13.5819	0.6709	0.578167
142.77	17.0574	-13.5721	0.677028	0.583504
143.619	16.9504	-13.566	0.683414	0.589288
144.469	17.0022	-13.5542	0.690638	0.595848
145.318	16.9715	-13.546	0.697694	0.601838
146.168	17.0049	-13.5397	0.701746	0.605261
147.018	17.0421	-13.5299	0.708695	0.611231
147.867	17.0471	-13.5226	0.714073	0.616324
148.7168	17.0457	-13.5135	0.721505	0.6226896
149.566	17.0142	-13.5078	0.725153	0.625631
150.416	17.1321	-13.497	0.732199	0.631975
151.266	17.0965	-13.4885	0.740426	0.638719
152.115	17.1999	-13.4754	0.746902	0.645159
152.965	17.05435	-13.4698	0.752878	0.649824
153.814	17.1293	-13.4625	0.757602	0.6542964
154.664	17.144	-13.4535	0.764242	0.65972
155.514	17.1729	-13.44445	0.771254	0.666012
156.363	17.1506	-13.436	0.777957	0.671859
157.213	17.0585	-13.4296	0.78222	0.675556
158.0625	17.158	-13.4211	0.787752	0.6808008
158.912	17.2479	-13.4093	0.795313	0.686732
159.762	17.2099	-13.4001	0.8027184	0.693691
160.611	17.1902	-13.3929	0.8084712	0.698429
161.461	17.1628	-13.3871	0.8124426	0.7022543
162.311	17.2631	-13.3782	0.818604	0.707328
163.16	17.2644	-13.3696	0.824761	0.712759
164.01	17.2488	-13.3605	0.831491	0.718728
164.859	17.235	-13.3526	0.836965	0.723969
165.709	17.2788	-13.3454	0.8425445	0.728643
166.559	17.2463	-13.3332	0.852962	0.73762
167.4082	17.3402	-13.3235	0.85845	0.74283
168.258	17.2395	-13.31799	0.863037	0.746799
169.107	17.346	-13.3103	0.867349	0.751211
169.957	17.31403	-13.3	0.875352	0.76022
170.807	17.3518	-13.2911	0.881745	0.7675668
171.656	17.3346	-13.2829	0.887944	0.775377
172.506	17.2638	-13.2765	0.892603	0.780531
173.355	17.378	-13.2666	0.899104	0.788135
174.205	17.3587	-13.25712	0.907286	0.794661
175.055	17.438	-13.2461	0.914009	0.8004328
175.9043	17.35	-13.2413	0.9195807	0.805384
176.754	17.35919	-13.23572	0.923122	0.808381
177.604	17.4299	-13.2264	0.929592	0.814296
178.453	17.4681	-13.2163	0.936341	0.81997
179.303	17.4566	-13.2077	0.94441	0.8274225
180.152	17.3674	-13.20009	0.949728	0.831699
181.002	17.5261	-13.1891	0.955615	0.837176
181.852	17.4898	-13.1807	0.962828	0.8433795
182.701	17.4946	-13.1715	0.969195	0.848716
183.551	17.4997	-13.1644	0.975189	0.853974
184.4	17.4378	-13.1577	0.979984	0.8580566
185.25	17.5645	-13.1471	0.9860087	0.8632555
186.1	17.4874	-13.1392	0.993356	0.870189
186.949	17.5855	-13.129	0.999766	0.8755573
187.799	17.4903	-13.122	1.00607	0.881086
188.648	17.6256	-13.113	1.0105	0.885037
189.498	17.5784	-13.1037	1.01837	0.891616
190.348	17.5244	-13.0968	1.0243	0.896908
191.197	17.6295	-13.087	1.02995	0.9021107
192.047	17.4845	-13.0823	1.03454	0.9058044
192.896	17.6153	-13.0732	1.04039	0.911425
193.746	17.6042	-13.063	1.04835	0.918319
194.5957	17.6572	-13.0524	1.05556	0.924702
195.445	17.6097	-13.0426	1.06331	0.931675
196.295	17.50489	-13.0399	1.06625	0.933653
197.145	17.5722	-13.0302	1.07374	0.94049
197.994	17.5918	-13.0213	1.080013	0.945912
198.844	17.7054	-13.0098	1.08633	0.95112
199.693	17.5976	-13.0032	1.09322	0.957274
200.543	17.7058	-12.9951	1.09779	0.9608705
201.393	17.6623	-12.9855	1.10506	0.967544
202.242	17.7016	-12.9763	1.11217	0.973615
203.0918	17.6603	-12.9671	1.11941	0.979917
203.941	17.5495	-12.9617	1.12336	0.983693
204.791	17.6429	-12.9547	1.1289	0.9883067
205.641	17.6883	-12.9446	1.13595	0.994093
206.49	17.7596	-12.9347	1.14184	0.999491
207.34	17.6669	-12.928	1.1484	1.00506
208.189	17.7349	-12.9208	1.153	1.00918
209.039	17.8842	-12.90769	1.16043	1.0159
209.889	17.7562	-12.8989	1.16881	1.02284
210.738	17.6905	-12.8924	1.17516	1.02869
211.588	17.6635	-12.8854	1.18009	1.03258
212.4375	17.7015	-12.8785	1.1854	1.03759
213.287	17.6928	-12.8687	1.192363	1.04377
214.137	17.7958	-12.8578	1.199685	1.04975
214.986	17.75975	-12.8498	1.20645	1.05558
215.836	17.7126	-12.8434	1.21008	1.05909
216.686	17.893	-12.8322	1.21703	1.06488
217.535	17.90803	-12.8237	1.22321	1.070858
218.385	17.8256	-12.8135	1.23194	1.07775
219.234	17.7355	-12.8086	1.23716	1.08232
220.084	17.8091	-12.8015	1.24062	1.086
220.934	17.81127	-12.7935	1.24746	1.091386
221.7832	17.8633	-12.7834	1.25428	1.09785
222.633	17.8314	-12.7744	1.26156	1.103708
223.482	17.81114	-12.7668	1.26613	1.10765
224.332	17.8808	-12.75666	1.27349	1.11408
225.182	17.8831	-12.7487	1.2802	1.11988
226.031	17.8884	-12.737	1.288712	1.12745
226.881	17.7619	-12.7295	1.29428	1.13271
227.73	17.8485	-12.72358	1.298756	1.13588
228.58	17.8239	-12.7158	1.30514	1.142
229.43	17.8865	-12.7055	1.31254	1.14809
230.2793	17.8166	-12.6971	1.31917	1.153827
231.129	17.9075	-12.6906	1.32182	1.15801
231.979	17.914	-12.6816	1.32849	1.1638
232.828	17.928	-12.6713	1.33583	1.169925
233.678	17.88969	-12.6641	1.341352	1.17497
234.527	17.9126	-12.6544	1.34911	1.18195
235.377	17.9593	-12.6463	1.35397	1.185831
236.227	17.9542	-12.6371	1.36181	1.19253
237.076	17.8804	-12.6306	1.36778	1.19747
237.926	17.9659	-12.6203	1.37351	1.20264
238.775	17.8861	-12.6156	1.37907	1.20752
239.625	17.9871	-12.6065	1.38449	1.21193
240.475	17.9696	-12.59651	1.39279	1.2193
241.324	17.9844	-12.5867	1.3995	1.22494
242.174	17.9623	-12.5784	1.40537	1.229949
243.023	17.9987	-12.5684	1.41205	1.23585
243.873	18.0494	-12.5608	1.418444	1.241518
244.723	17.9276	-12.5533	1.425452	1.24715
245.572	18.0063	-12.544	1.43228	1.25343
246.422	18.0016	-12.5352	1.4377	1.25803
247.271	18.0523	-12.5279	1.44249	1.26196
248.121	18.0763	-12.5173	1.45031	1.26905
248.9707	18.0082	-12.51018	1.45661	1.27428
249.82	17.95	-12.5023	1.46375	1.28036
250.67	17.9531	-12.4942	1.46822	1.2848
251.52	18.0412	-12.4853	1.47526	1.29055
252.369	18.0245	-12.4758	1.48259	1.296766
253.219	18.0122	-12.4682	1.48904	1.30267
254.068	18.0439	-12.4598	1.4938	1.30645
254.918	18.036	-12.4541	1.4987	1.31065
255.768	18.0796	-12.442	1.50708	1.3182
256.617	18.0751	-12.4342	1.51269	1.322953
257.4668	18.0574	-12.4258	1.52041	1.32985
258.316	18.0651	-12.4189	1.52462	1.33351
259.166	18.1449	-12.40875	1.5318	1.3395
260.016	18.1364	-12.3974	1.54096	1.34736
260.865	18.1166	-12.3882	1.54788	1.3533
261.715	17.914	-12.3838	1.55402	1.358706
262.564	18.1656	-12.3755	1.55705	1.361403
263.414	18.1283	-12.3665	1.5637	1.36698
264.264	18.0975	-12.3576	1.571435	1.37409
265.113	18.0035	-12.3494	1.57835	1.37966
265.963	18.09934	-12.341	1.58269	1.38376
266.8125	18.1359	-12.3323	1.58972	1.38978
267.662	18.104	-12.3239	1.59697	1.395883
268.512	18.1558	-12.3136	1.60374	1.40204
269.361	18.0734	-12.3063	1.61035	1.40726
270.211	18.1596	-12.2981	1.61575	1.412074
271.061	18.1991	-12.2883	1.62233	1.4177
271.91	18.1557	-12.2819	1.62813	1.42289
272.76	18.11035	-12.2742	1.63522	1.429069
273.609	18.08103	-12.26858	1.638865	1.43205
274.459	18.2032	-12.257	1.64583	1.43809
275.309	18.1801	-12.2477	1.65389	1.44504
276.1582	18.1946	-12.2375	1.66051	1.45063
277.008	18.0795	-12.2312	1.66596	1.455635
277.857	18.1757	-12.2233	1.671757	1.460567
278.707	18.197	-12.2136	1.67936	1.46683
279.557	18.20454	-12.2043	1.68617	1.4731
280.406	18.1943	-12.1959	1.69344	1.4788
281.256	18.1497	-12.1907	1.69778	1.48292
282.105	18.0664	-12.1792	1.70564	1.489792
282.955	18.1904	-12.1708	1.71211	1.49509
283.805	18.27356	-12.1583	1.720525	1.50281
284.6543	18.193	-12.1511	1.72686	1.50819
285.504	18.1554	-12.145	1.731733	1.51167
286.354	18.275	-12.1363	1.73763	1.51735
287.203	18.1033	-12.13046	1.7442	1.52315
288.053	18.2766	-12.117	1.75149	1.52916
288.902	18.0974	-12.1129	1.75709	1.534117
289.752	18.2791	-12.1033	1.76247	1.53872
290.602	18.2427	-12.08935	1.77311	1.54789
291.451	18.2104	-12.0836	1.77799	1.55227
292.301	18.1841	-12.0766	1.78405	1.55745
293.15	18.1963	-12.0696	1.78798	1.56056
294	18.2891	-12.0611	1.7939	1.56593
294.85	18.2615	-12.05246	1.80187	1.57269
295.699	18.261	-12.043	1.80873	1.57833
296.549	18.231	-12.0368	1.81533	1.58429
297.398	18.3243	-12.028	1.82107	1.58916
298.248	18.2931	-12.01805	1.82851	1.59549
299.098	18.2781	-12.0088	1.83631	1.60245
299.947	18.3031	-12.0011	1.8446	1.60925
300.797	18.1685	-11.9943	1.84884	1.61274
301.646	18.252	-11.9848	1.85361	1.61709
302.496	18.2663	-11.97572	1.86062	1.62312
303.3457	18.3053	-11.9662	1.86522	1.62887
304.195	18.2282	-11.9577	1.871776	1.63475
305.045	18.2353	-11.9519	1.87622	1.63855
305.895	18.33353	-11.9412	1.88336	1.64472
306.744	18.3054	-11.9324	1.89064	1.65119
307.594	18.3081	-11.9231	1.898001	1.657424
308.443	18.2134	-11.91654	1.90318	1.66173
309.293	18.323	-11.9086	1.90872	1.66669
310.143	18.3114	-11.8986	1.91692	1.67306
310.992	18.3139	-11.8902	1.923718	1.67939
311.8418	18.2884	-11.8813	1.93087	1.68536
312.691	18.2725	-11.8761	1.93488	1.68863
313.541	18.3658	-11.8655	1.94203	1.69515
314.391	18.3249	-11.8562	1.94982	1.70148
315.24	18.2926	-11.8469	1.95691	1.70754
316.09	18.2523	-11.8409	1.96174	1.71177
316.939	18.3413	-11.8323	1.96784	1.71681
317.789	18.357	-11.8213	1.97615	1.72401
318.639	18.3433	-11.8132	1.98276	1.72954
319.488	18.3051	-11.8055	1.98943	1.7349
320.338	18.3267	-11.7993	1.99382	1.73915
321.1875	18.3657	-11.7877	2.00143	1.745471
322.037	18.3623	-11.7792	2.0086	1.75144
322.887	18.3586	-11.7707	2.0158	1.758
323.736	18.2802	-11.764	2.02086	1.76212
324.586	18.35396	-11.7555	2.02644	1.76704
325.436	18.40341	-11.7451	2.034122	1.77368
326.285	18.3805	-11.7365	2.041676	1.77999
327.135	18.3367	-11.7296	2.0481	1.78555
327.984	18.3485	-11.7206	2.05389	1.79049
328.834	18.383	-11.7109	2.06084	1.79599
329.684	18.3772	-11.7025	2.06792	1.80257
330.5332	18.4141	-11.6919	2.07585	1.80923
331.383	18.1483	-11.6904	2.08034	1.81306
332.232	18.3667	-11.6793	2.08571	1.81775
333.082	18.3724	-11.6675	2.09529	1.825838
333.932	18.368	-11.6589	2.10206	1.83156
334.781	18.2785	-11.6543	2.10733	1.83582
335.631	18.3446	-11.6454	2.11149	1.83964
336.48	18.4049	-11.6364	2.119271	1.84627
337.33	18.3827	-11.6277	2.1265	1.85242
338.18	18.3814	-11.6179	2.13413	1.85885
339.0293	18.2506	-11.6127	2.1382	1.86256
339.879	18.4076	-11.6032	2.14448	1.86766
340.729	18.3936	-11.5925	2.15309	1.87528
341.578	18.4113	-11.5843	2.16036	1.88149
342.428	18.3764	-11.5752	2.167016	1.8869
343.277	18.3948	-11.568	2.17143	1.89093
344.127	18.4176	-11.557	2.17949	1.89784
344.977	18.3976	-11.548	2.1878	1.90472
345.826	18.426	-11.5399	2.19426	1.91042
346.676	18.3544	-11.5328	2.20046	1.91589
347.525	18.393	-11.5267	2.203661	1.91833
348.375	18.3863	-11.5177	2.21144	1.92528
349.225	18.4906	-11.5056	2.21972	1.93224
350.074	18.4185	-11.4971	2.227747	1.93877
350.924	18.2546	-11.4931	2.23218	1.94284
351.773	18.3913	-11.4832	2.23816	1.94765
352.623	18.4476	-11.47208	2.24615	1.95489
353.473	18.4374	-11.4655	2.25219	1.96011
354.322	18.3985	-11.4582	2.258198	1.96519
355.172	18.392	-11.4506	2.26289	1.969179
356.021	18.4709	-11.4402	2.27064	1.97614
356.871	18.418	-11.4321	2.27812	1.982002
357.7207	18.4601	-11.4221	2.28549	1.98818
358.57	18.3156	-11.4166	2.29076	1.99296
359.42	18.3998	-11.4083	2.29635	1.99738
360.27	18.4444	-11.397	2.30547	2.005115
361.119	18.4536	-11.3884	2.31208	2.01098
361.969	18.4292	-11.3798	2.31916	2.01666
362.818	18.4137	-11.3744	2.32343	2.02017
363.668	18.4715	-11.364	2.33011	2.02629
364.518	18.443	-11.3548	2.33863	2.03333
365.367	18.4524	-11.346	2.34563	2.03958
366.2168	18.40486	-11.339	2.35173	2.0441
367.066	18.4407	-11.3307	2.35668	2.048656
367.916	18.4842	-11.3207	2.36462	2.05569
368.766	18.4729	-11.3125	2.372525	2.06168
369.615	18.4413	-11.3029	2.37954	2.0684
370.465	18.3223	-11.2973	2.38411	2.07209
371.314	18.4672	-11.289	2.39013	2.07704
372.164	18.4796	-11.278	2.39875	2.08447
373.014	18.4668	-11.2693	2.40587	2.09072
373.863	18.4303	-11.2612	2.41218	2.09554
374.713	18.4764	-11.2549	2.41717	2.100208
375.5625	18.5222	-11.2451	2.42411	2.10617
376.412	18.47	-11.2346	2.43231	2.112951
377.262	18.4979	-11.2269	2.440109	2.11982
378.111	18.3852	-11.2198	2.44508	2.12374
378.961	18.4772	-11.2123	2.45037	2.12838
379.811	18.5016	-11.20146	2.45893	2.13586
380.66	18.4821	-11.1925	2.46617	2.14176
381.51	18.4536	-11.1851	2.47249	2.14725
382.359	18.4261	-11.1782	2.47747	2.1516
383.209	18.5347	-11.1691	2.48442	2.157171
384.059	18.49939	-11.1587	2.49317	2.16467
384.9082	18.4855	-11.1499	2.49979	2.17104
385.758	18.44001	-11.1441	2.50588	2.17576
386.607	18.5012	-11.13638	2.51079	2.18009
387.457	18.5302	-11.1251	2.51904	2.18703
388.307	18.5128	-11.1161	2.52659	2.19339
389.156	18.4739	-11.10768	2.533704	2.19921
390.006	18.4054	-11.1017	2.53859	2.20354
390.855	18.4905	-11.0931	2.54424	2.20805
391.705	18.5281	-11.0825	2.55322	2.21594
392.555	18.509	-11.0744	2.56017	2.22176
393.4043	18.4481	-11.0659	2.56683	2.22726
394.254	18.4479	-11.0593	2.57125	2.231401
395.104	18.5614	-11.0494	2.57843	2.23749
395.953	18.512	-11.0398	2.586808	2.24428
396.803	18.492	-11.0299	2.59407	2.25074
397.652	18.4374	-11.02558	2.59953	2.25492
398.502	18.516	-11.0169	2.60353	2.2597
399.352	18.5444	-11.0061	2.61133	2.26758
400.201	18.5142	-10.9976	2.61843	2.27348
401.051	18.48859	-10.9894	2.62518	2.27928
401.9	18.4716	-10.9837	2.62942	2.28303
402.75	18.5584	-10.9733	2.63644	2.28866
403.6	18.5222	-10.9636	2.64503	2.29612
404.449	18.52582	-10.9552	2.65234	2.30261
405.299	18.4635	-10.9476	2.65843	2.30738
406.148	18.5295	-10.9411	2.66294	2.31128
406.998	18.5471	-10.9298	2.67166	2.31904
407.848	18.502	-10.9214	2.67954	2.32531
408.697	18.52438	-10.9124	2.68649	2.33135
409.547	18.3577	-10.9087	2.69093	2.33512
410.396	18.6033	-10.8966	2.697154	2.34029
411.246	18.5669	-10.8854	2.70702	2.348918
412.0957	18.4879	-10.8783	2.71383	2.3548
412.945	18.4776	-10.8705	2.71984	2.35959
413.795	18.4991	-10.8639	2.72438	2.36328
414.645	18.5654	-10.8538	2.73159	2.37019
415.494	18.5212	-10.8439	2.7403	2.37744
416.344	18.5229	-10.8358	2.74765	2.383265
417.193	18.4487	-10.8287	2.75287	2.38783
418.043	18.5334	-10.8209	2.758626	2.39252
418.893	18.55665	-10.81	2.76713	2.4001
419.742	18.5513	-10.8017	2.77471	2.40641
420.5918	18.509	-10.7937	2.78246	2.41327
421.441	18.3942	-10.7876	2.78662	2.416636
422.291	18.5883	-10.7769	2.793	2.42185
423.141	18.5362	-10.7683	2.80168	2.42971
423.99	18.5202	-10.7595	2.80894	2.43563
424.84	18.4675	-10.7529	2.81441	2.44012
425.689	18.45249	-10.7445	2.82147	2.446207
426.539	18.5694	-10.7339	2.828526	2.45261
427.389	18.5404	-10.7257	2.83606	2.45866
428.238	18.50041	-10.7175	2.843	2.46457
429.088	18.4862	-10.7113	2.84697	2.468117
429.9375	18.5687	-10.7018	2.85445	2.47425
430.787	18.6279	-10.7012	2.86377	2.48218
431.637	18.4511	-10.6827	2.8712	2.48872
432.486	18.4682	-10.6762	2.87638	2.49343
433.336	18.51236	-10.6691	2.88122	2.49692
434.186	18.494	-10.6583	2.89047	2.50482
435.035	18.5375	-10.6491	2.897862	2.51142
435.885	18.5383	-10.6398	2.90477	2.51676
436.734	18.3987	-10.6353	2.90978	2.52132
437.584	18.5238	-10.6265	2.915524	2.52613
438.434	18.5538	-10.6148	2.92465	2.533653
439.2832	18.5484	-10.6062	2.93183	2.54005
440.133	18.4897	-10.5988	2.93842	2.54587
440.982	18.5126	-10.592	2.94287	2.54937
441.832	18.5831	-10.582	2.95082	2.55581
442.682	18.5131	-10.5734	2.95911	2.56351
443.531	18.4995	-10.5645	2.96631	2.56919
444.381	18.5276	-10.559	2.97075	2.57312
445.23	18.5944	-10.5478	2.97814	2.57992
446.08	18.5343	-10.53897	2.98664	2.5872
446.93	18.55385	-10.5304	2.9933	2.59302
447.7793	18.4353	-10.5243	2.99885	2.59804
448.629	18.5462	-10.516	3.00369	2.602
449.479	18.5812	-10.5042	3.01276	2.60976
450.328	18.55023	-10.4964	3.0206	2.61657
451.178	18.4938	-10.4885	3.02717	2.62214
452.027	18.5078	-10.4822	3.03145	2.62577
452.877	18.601	-10.4733	3.03867	2.63229
453.727	18.5096	-10.46207	3.048233	2.64064
454.576	18.5701	-10.4531	3.05485	2.645997
455.426	18.4647	-10.447	3.06134	2.65141
456.275	18.5485	-10.4389	3.06564	2.65535
457.125	18.5771	-10.4285	3.0745	2.66262
457.975	18.5583	-10.4198	3.08219	2.66945
458.824	18.5228	-10.4109	3.08949	2.67567
459.674	18.4314	-10.4061	3.09467	2.67991
460.523	18.5693	-10.3965	3.10101	2.68507
461.373	18.5589	-10.38541	3.11023	2.693517
462.223	18.54565	-10.3768	3.11784	2.69979
463.072	18.5142	-10.3695	3.12425	2.70493
463.922	18.5466	-10.3624	3.1292	2.7096
464.771	18.5972	-10.3526	3.13667	2.71584
465.621	18.542	-10.3423	3.14499	2.723012
466.4707	18.5605	-10.3344	3.15264	2.72945
467.32	18.4631	-10.3262	3.15822	2.73438
468.17	18.54105	-10.3208	3.16356	2.73859
469.02	18.583	-10.3097	3.17245	2.74642
469.869	18.5504	-10.3002	3.18016	2.7533
470.719	18.5089	-10.2933	3.18656	2.75878
471.568	18.5392	-10.2864	3.19105	2.76271
472.418	18.5965	-10.2761	3.19843	2.76917
473.268	18.5454	-10.2663	3.20784	2.77735
474.117	18.5533	-10.2575	3.21483	2.78304
474.9668	18.4559	-10.2517	3.22076	2.78786
475.816	18.5622	-10.24386	3.2252	2.79254
476.666	18.5761	-10.2321	3.23427	2.8
477.516	18.5684	-10.2243	3.242028	2.80665
478.365	18.5226	-10.2169	3.24922	2.81309
479.215	18.4956	-10.2102	3.2549	2.81795
480.064	18.5729	-10.2016	3.26119	2.8231
480.914	18.567	-10.1908	3.27037	2.83093
481.764	18.544	-10.1809	3.278049	2.83806
482.613	18.484	-10.1748	3.28456	2.84302
483.463	18.51	-10.16797	3.28847	2.84667
484.3125	18.591	-10.1571	3.29637	2.85345
485.162	18.5654	-10.1475	3.30501	2.86125
486.012	18.5343	-10.1397	3.31226	2.86698
486.861	18.4767	-10.1329	3.31765	2.87177
487.711	18.56213	-10.1245	3.32362	2.87716
488.561	18.5872	-10.1128	3.33259	2.88471
489.41	18.5518	-10.1056	3.34033	2.89147
490.26	18.5051	-10.09659	3.34729	2.89773
491.109	18.5287	-10.0911	3.35156	2.90146
491.959	18.5962	-10.0813	3.35862	2.90712
492.809	18.5405	-10.0715	3.36764	2.91553
493.6582	18.5579	-10.06227	3.3748	2.9219
494.508	18.5224	-10.0595	3.38116	2.92736
495.357	18.4944	-10.0482	3.38774	2.93325
496.207	18.5848	-10.0371	3.39491	2.93939
497.057	18.5391	-10.0291	3.40287	2.94633
497.906	18.493	-10.021	3.40989	2.95262
498.756	18.4535	-10.0158	3.41444	2.95666
499.605	18.5701	-10.0054	3.4211	2.96237
500.455	18.4828	-9.99634	3.43431	2.97409
501.305	18.5743	-9.98218	3.44144	2.98005
502.1543	18.439	-9.97908	3.445879	2.9837
503.004	18.5022	-9.97152	3.450222	2.98776
503.854	18.57551	-9.96163	3.4575	2.99401
504.703	18.55183	-9.95223	3.46575	3.00124
505.553	18.55163	-9.94356	3.4734	3.007642
506.402	18.5688	-9.937604	3.47992	3.01373
507.252	18.5302	-9.93129	3.48739	3.01997
508.102	18.5329	-9.919076	3.4948	3.02624
508.951	18.5305	-9.90981	3.50156	3.03261
509.801	18.511	-9.902462	3.50817	3.03801
510.65	18.5265	-9.89565	3.51305	3.04244
511.5	18.5787	-9.8858	3.5207	3.04901
512.35	18.5426	-9.87572	3.5301	3.05743
513.199	18.5501	-9.86757	3.53817	3.064327
514.049	18.6551	-9.86182	3.54943	3.074585
514.898	18.6174	-9.85359	3.56317	3.08631
515.748	18.621	-9.84076	3.57343	3.09541
516.598	18.517	-9.819417	3.58055	3.10186
517.447	18.349	-9.83344	3.58296	3.103967
518.297	18.411	-9.81971	3.58622	3.10653
519.146	18.4685	-9.80563	3.58994	3.11029
519.996	18.4389	-9.79726	3.59785	3.11694
520.8457	18.497	-9.79097	3.60156	3.12013
521.695	18.4969	-9.78287	3.6081	3.12614
522.545	18.4756	-9.77764	3.61223	3.12975
523.395	18.5884	-9.76647	3.62003	3.13669
524.244	18.5612	-9.75718	3.62931	3.14505
525.094	18.5215	-9.74804	3.63661	3.15132
525.943	18.4341	-9.74248	3.64189	3.15573
526.793	18.523	-9.73461	3.64825	3.16161
527.643	18.6774	-9.72509	3.66658	3.17791
528.492	18.4111	-9.71942	3.67637	3.18634
529.3418	18.3681	-9.71316	3.68162	3.19139
530.191	18.3161	-9.70581	3.68671	3.19555
531.041	18.3412	-9.68971	3.68949	3.19785
531.891	18.5109	-9.68125	3.69374	3.202
532.74	18.5571	-9.66927	3.70221	3.209605
533.59	18.615	-9.67134	3.71751	3.22333
534.439	18.3777	-9.660532	3.72579	3.23117
535.289	18.5407	-9.64258	3.73123	3.235965
536.139	18.394	-9.63713	3.73782	3.24181
536.988	18.3556	-9.62802	3.74147	3.24515
537.838	18.3407	-9.62405	3.742846	3.24667
538.6875	18.5043	-9.61474	3.748199	3.25093
539.537	18.4754	-9.60414	3.75784	3.25964
540.387	18.5593	-9.5936	3.76495	3.2661
541.236	18.4977	-9.58903	3.77572	3.2758
542.086	18.5727	-9.58077	3.78433	3.28383
542.936	18.5191	-9.56549	3.79778	3.29613
543.785	18.4099	-9.55932	3.80459	3.30208
544.635	18.3114	-9.55308	3.80692	3.304049
545.484	18.3394	-9.54751	3.80889	3.30627
546.334	18.4726	-9.53869	3.81284	3.3095
547.184	18.618	-9.53475	3.82882	3.324456
548.0332	18.1528	-9.52052	3.83764	3.332341
548.883	18.4632	-9.51065	3.84217	3.33617
549.732	18.459	-9.50649	3.84985	3.34323
550.582	18.3236	-9.4941	3.85267	3.34625
551.432	18.4965	-9.48481	3.85572	3.35002
552.281	18.5611	-9.48034	3.87007	3.36359
553.131	18.548	-9.46932	3.88203	3.37494
553.98	18.4074	-9.457613	3.88587	3.37815
554.83	18.434	-9.45292	3.8897	3.38173
555.68	18.47723	-9.44237	3.90697	3.39762
556.5293	18.4564	-9.43417	3.91304	3.40358
557.379	18.4044	-9.42879	3.917587	3.4075
558.229	18.5142	-9.41822	3.92563	3.415271
559.078	18.4908	-9.40872	3.93417	3.4228
559.928	18.4761	-9.39963	3.94173	3.42966
560.777	18.4114	-9.39468	3.94725	3.43502
561.627	18.5369	-9.38614	3.95489	3.442
562.477	18.4219	-9.37633	3.96153	3.44847
563.326	18.6642	-9.36389	3.96735	3.453516
564.176	18.4654	-9.35748	3.97753	3.46326
565.025	18.445	-9.35203	3.98187	3.46722
565.875	18.539	-9.34108	3.990356	3.47534
566.725	18.5015	-9.33301	3.99886	3.48337
567.574	18.475	-9.32336	4.00623	3.49013
568.424	18.41597	-9.31743	4.01195	3.495724
569.273	18.5171	-9.30852	4.01794	3.50128
570.123	18.5057	-9.29804	4.02748	3.510082
570.973	18.494	-9.29018	4.03531	3.51784
571.822	18.474	-9.28182	4.042758	3.52499
572.672	18.4329	-9.27562	4.04673	3.52851
573.521	18.4387	-9.26581	4.05624	3.5377
574.371	18.5077	-9.25612	4.0642	3.54555
575.2207	18.48871	-9.24666	4.07173	3.55208
576.07	18.404	-9.24092	4.07794	3.55841
576.92	18.4301	-9.23415	4.0831	3.56361
577.77	18.5143	-9.22103	4.09252	3.57269
578.619	18.4598	-9.21255	4.10078	3.580127
579.469	18.4612	-9.20465	4.108676	3.58824
580.318	18.3843	-9.19978	4.11288	3.59222
581.168	18.4734	-9.189702	4.11996	3.59868
582.018	18.4769	-9.17903	4.12952	3.60865
582.867	18.4765	-9.17076	4.1373	3.61564
583.7168	18.4034	-9.16344	4.14384	3.62234
584.566	18.4323	-9.15708	4.14875	3.62697
585.416	18.5102	-9.14518	4.15718	3.63541
586.266	18.4711	-9.1375	4.16536	3.64343
587.115	18.4594	-9.12854	4.173738	3.65176
587.965	18.3433	-9.12271	4.179297	3.65746
588.814	18.53	-9.11045	4.1846	3.66214
589.664	18.3801	-9.10382	4.19629	3.67409
590.514	18.3665	-9.09927	4.20297	3.68084
591.363	18.3591	-9.07918	4.20699	3.6847
592.213	18.4524	-9.07958	4.21484	3.69246
593.0625	18.5133	-9.06974	4.22295	3.70085
593.912	18.4621	-9.06027	4.23197	3.70975
594.762	18.4611	-9.05114	4.23991	3.71743
595.611	18.354	-9.04508	4.24655	3.72426
596.461	18.4751	-9.03721	4.25157	3.72903
597.311	18.4723	-9.02667	4.26117	3.73894
598.16	18.4544	-9.01831	4.26898	3.7473
599.01	18.3928	-9.00913	4.27726	3.75565
599.859	18.35453	-9.00388	4.28115	3.75944
600.709	18.47468	-8.99497	4.2886	3.76712
601.559	18.4571	-8.98414	4.29823	3.77653
602.4082	18.4329	-8.97555	4.30617	3.78491
603.258	18.335	-8.97024	4.31119	3.79047
604.107	18.4509	-8.96099	4.31802	3.79749
604.957	18.4573	-8.94977	4.32782	3.80732
605.807	18.43338	-8.94082	4.335885	3.81569
606.656	18.3626	-8.93365	4.34337	3.82358
607.506	18.4056	-8.92737	4.347363	3.82766
608.355	18.4701	-8.916235	4.35662	3.83758
609.205	18.42943	-8.90742	4.36542	3.84702
610.055	18.4185	-8.89895	4.373106	3.85493
610.9043	18.3039	-8.89398	4.37831	3.86037
611.754	18.4298	-8.88433	4.38494	3.8673
612.604	18.4398	-8.87347	4.39467	3.87718
613.453	18.4235	-8.86389	4.402657	3.88578
614.303	18.3282	-8.85857	4.40905	3.89306
615.152	18.39949	-8.85037	4.41451	3.898736
616.002	18.5187	-8.84409	4.423974	3.90891
616.852	18.3117	-8.83135	4.43346	3.91931
617.701	18.3924	-8.82233	4.43973	3.92623
618.551	18.35206	-8.81672	4.44385	3.93092
619.4	18.44203	-8.80698	4.45152	3.93894
620.25	18.3945	-8.7967	4.46095	3.949239
621.1	18.39715	-8.78809	4.46882	3.9579
621.949	18.3361	-8.78208	4.47498	3.96506
622.799	18.3815	-8.77381	4.48019	3.9707
623.648	18.4417	-8.76266	4.4898	3.98038
624.498	18.3924	-8.7544	4.49847	3.99069
625.348	18.3562	-8.74624	4.507237	3.99988
626.197	18.2457	-8.740942	4.5121	4.0053
627.047	18.3693	-8.73124	4.51878	4.01277
627.896	18.3776	-8.72075	4.52864	4.02366
628.746	18.4872	-8.71138	4.53716	4.03259
629.5957	18.28351	-8.70409	4.54559	4.04215
630.445	18.30208	-8.6975	4.54922	4.04643
631.295	18.3953	-8.68659	4.5573	4.0549
632.145	18.3761	-8.67845	4.56658	4.06568
632.994	18.3374	-8.67033	4.57484	4.07449
633.844	18.3067	-8.66369	4.57908	4.07945
634.693	18.4449	-8.65306	4.58727	4.08832
635.543	18.36582	-8.6441	4.597	4.0996
636.393	18.354	-8.63551	4.60487	4.10795
637.242	18.2666	-8.62978	4.61132	4.11549
638.0918	18.38554	-8.62112	4.617259	4.12219
638.941	18.3816	-8.609436	4.626895	4.13268
639.791	18.3527	-8.60053	4.63511	4.14247
640.641	18.2763	-8.59493	4.64196	4.15003
641.49	18.3589	-8.58723	4.64712	4.156311
642.34	18.3622	-8.57574	4.65718	4.16755
643.189	18.3496	-8.56703	4.66615	4.17776
644.039	18.3115	-8.55835	4.67448	4.18708
644.889	18.1632	-8.55524	4.67876	4.19226
645.738	18.3541	-8.54403	4.686326	4.20086
646.588	18.3228	-8.53398	4.69681	4.212431
647.4375	18.2886	-8.5247	4.70508	4.22197
648.287	18.2497	-8.51741	4.71218	4.23002
649.137	18.2888	-8.51081	4.71723	4.23573
649.986	18.3266	-8.50015	4.72666	4.24617
650.836	18.3301	-8.49058	4.73633	4.25733
651.686	18.2424	-8.48273	4.7451	4.26723
652.535	18.2152	-8.47722	4.74968	4.27235
653.385	18.3128	-8.46692	4.75795	4.28195
654.234	18.29151	-8.45662	4.7676	4.29299
655.084	18.29023	-8.44769	4.77616	4.30246
655.934	18.1521	-8.44245	4.78338	4.31087
656.7832	18.3022	-8.43399	4.78813	4.31646
657.633	18.2991	-8.42327	4.79838	4.32786
658.482	18.2427	-8.41442	4.80734	4.33836
659.332	18.2219	-8.40659	4.81187	4.34757
660.182	18.16482	-8.40062	4.81538	4.35293
661.031	18.28706	-8.39047	4.82382	4.36261
661.881	18.2389	-8.38049	4.83483	4.37496
662.73	18.2318	-8.37201	4.84342	4.38457
663.58	18.1592	-8.36559	4.84982	4.3919
664.43	18.2413	-8.35723	4.85668	4.39952
665.2793	18.24663	-8.34581	4.86657	4.41109
666.129	18.2235	-8.33836	4.875361	4.42073
666.979	18.1562	-8.329545	4.883985	4.4309
667.828	18.1747	-8.3244	4.88852	4.43576
668.678	18.2659	-8.31398	4.89736	4.44552
669.527	18.19071	-8.3043	4.90809	4.45764
670.377	18.1687	-8.295166	4.91729	4.46809
671.227	18.1164	-8.28877	4.92386	4.4753
672.076	18.1638	-8.28067	4.93076	4.48288
672.926	18.1915	-8.26998	4.94085	4.494091
673.775	18.175	-8.262126	4.95015	4.504652
674.625	18.1406	-8.25259	4.95911	4.5147
675.475	18.0467	-8.24772	4.96455	4.5209
676.324	18.1628	-8.23743	4.972508	4.52982
677.174	18.1331	-8.227725	4.9827	4.54088
678.023	18.1209	-8.21867	4.99265	4.551672
678.873	18.0989	-8.21162	5.00076	4.56072
679.723	18.1041	-8.20468	5.00647	4.5671
680.572	18.1694	-8.1936	5.01579	4.57733
681.422	18.1134	-8.18535	5.02631	4.58925
682.271	18.0982	-8.17637	5.03577	4.59926
683.121	18.0378	-8.16991	5.04294	4.60704
683.9707	18.1611	-8.16328	5.04956	4.61456
684.82	18.1366	-8.15044	5.059516	4.62541
685.67	18.063	-8.14262	5.06903	4.63586
686.52	18.0091	-8.13504	5.077198	4.64509
687.369	18.05484	-8.12763	5.08337	4.651835
688.219	18.068	-8.117	5.094089	4.66306
689.068	18.0221	-8.10858	5.10357	4.67358
689.918	18.0391	-8.09989	5.112453	4.68378
690.768	17.918	-8.09479	5.11867	4.6903
691.617	18.0043	-8.08501	5.127027	4.69937
692.4668	18.0143	-8.07476	5.13834	4.71156
693.316	17.9916	-8.06584	5.14743	4.72132
694.166	17.9287	-8.05856	5.15542	4.72993
695.016	17.9545	-8.05114	5.16159	4.73667
695.865	18.0131	-8.04114	5.1714	4.74717
696.715	17.9724	-8.03217	5.1824	4.758667
697.564	17.9155	-8.02434	5.1914	4.76853
698.414	17.8886	-8.01741	5.19861	4.77624
699.264	17.9586	-8.00905	5.20658	4.784822
700.113	17.9134	-7.997272	5.21858	4.79758
700.963	17.8922	-7.99057	5.23252	4.81237
701.8125	17.7343	-7.98175	5.2386	4.81921
702.662	17.853	-7.97481	5.24241	4.82305
703.512	17.9505	-7.96489	5.2495	4.83261
704.361	17.9857	-7.95232	5.26044	4.84499
705.211	17.8059	-7.946919	5.27145	4.856317
706.061	17.7479	-7.94144	5.27746	4.86287
706.91	17.84651	-7.93302	5.28426	4.87003
707.76	17.7139	-7.92161	5.29852	4.88528
708.609	17.8222	-7.91285	5.30549	4.89253
709.459	17.9616	-7.906743	5.31478	4.902472
710.309	17.61	-7.9017	5.32187	4.90981
711.1582	17.7176	-7.88782	5.3351	4.923131
712.008	17.6409	-7.8787	5.34569	4.934402
712.857	17.7807	-7.87046	5.351038	4.94014
713.707	17.7281	-7.86376	5.35859	4.948
714.557	17.7658	-7.85623	5.36544	4.95488
715.406	17.8079	-7.84474	5.37669	4.96695
716.256	17.7454	-7.83735	5.38727	4.97788
717.105	17.709	-7.827723	5.39761	4.98832
717.955	17.6293	-7.82225	5.40487	4.99614
718.805	17.744	-7.81317	5.41268	5.00381
719.6543	17.69392	-7.79892	5.429769	5.021574
720.504	17.6558	-7.79757	5.4384	5.03005
721.354	17.5783	-7.78582	5.44578	5.03795
722.203	17.6741	-7.78107	5.45213	5.044167
723.053	17.6756	-7.77046	5.46399	5.056004
723.902	17.60252	-7.76137	5.47504	5.067739
724.752	17.6447	-7.751967	5.48501	5.07782
725.602	17.4614	-7.74554	5.48994	5.08339
726.451	17.535	-7.7377	5.49825	5.09174
727.301	17.5594	-7.72258	5.50687	5.10039
728.15	17.5498	-7.71601	5.51596	5.10944
729	17.5677	-7.71159	5.5247	5.11816
729.85	17.5871	-7.70368	5.53432	5.1282
730.699	17.4844	-7.69447	5.54446	5.1384
731.549	17.5378	-7.68382	5.55504	5.14922
732.398	17.5105	-7.67575	5.56521	5.15943
733.248	17.4487	-7.6677	5.57425	5.16866
734.098	17.4688	-7.6605	5.58025	5.17456
734.947	17.5148	-7.65108	5.59183	5.18661
735.797	17.4459	-7.6409	5.60355	5.19827
736.646	17.5509	-7.631907	5.6142	5.20882
737.496	17.3364	-7.62674	5.62065	5.21586
738.3457	17.4265	-7.61777	5.62894	5.22374
739.195	17.42589	-7.60756	5.64043	5.23561
740.045	17.4107	-7.59869	5.65051	5.24564
740.895	17.3431	-7.59116	5.65981	5.25513
741.744	17.3325	-7.58351	5.66598	5.26107
742.594	17.4337	-7.57474	5.67388	5.269
743.443	17.337	-7.56539	5.68873	5.28407
744.293	17.2152	-7.55416	5.69805	5.29318
745.143	17.2873	-7.54679	5.70673	5.30178
745.992	17.33639	-7.54217	5.71735	5.31265
746.8418	17.2737	-7.53081	5.72684	5.32189
747.691	17.2448	-7.52283	5.73748	5.33246
748.541	17.2312	-7.51448	5.74607	5.341754
749.391	17.35314	-7.50509	5.75307	5.34831
750.24	17.2356	-7.49728	5.763617	5.35869
751.09	17.0644	-7.48837	5.78212	5.37741
751.939	17.1308	-7.47992	5.7866	5.38116
752.789	17.1244	-7.47245	5.79401	5.38888
753.639	17.1697	-7.46504	5.80161	5.39622
754.488	17.1865	-7.45489	5.8128	5.407361
755.338	17.0908	-7.4454	5.82486	5.41928
756.1875	17.0921	-7.43698	5.83443	5.428936
757.037	16.7613	-7.43718	5.83882	5.43309
757.887	16.7595	-7.437077	5.83923	5.43404
758.736	16.8375	-7.43613	5.84069	5.43567
759.586	16.807	-7.43586	5.8412	5.43585
760.436	16.7247	-7.43556	5.84163	5.43631
761.285	16.5582	-7.43833	5.84032	5.43514
762.135	16.689	-7.43634	5.84091	5.43601
762.984	16.7258	-7.4357	5.84216	5.437048
763.834	16.6907	-7.43519	5.84214	5.43715
764.684	16.4986	-7.43933	5.8409	5.43547
765.5332	16.6085	-7.43707	5.841291	5.43657
766.383	16.6744	-7.43547	5.8425	5.43713
767.232	16.6691	-7.43562	5.84238	5.43702
768.082	16.6453	-7.43598	5.84298	5.43751
768.932	16.468	-7.43834	5.84128	5.43605
769.781	16.6277	-7.43549	5.84211	5.43689
770.631	16.6498	-7.4356	5.84289	5.43738
771.48	16.64884	-7.43542	5.84289	5.43773
772.33	16.4915	-7.4379	5.84181	5.43641
773.18	16.5211	-7.437407	5.84158	5.43648
774.0293	16.6259	-7.4358	5.84253	5.43751
774.879	16.6127	-7.43539	5.84285	5.43705
775.729	16.61323	-7.43564	5.84295	5.437664
776.578	16.4134	-7.43817	5.84125	5.43641
777.428	16.514	-7.43728	5.84177	5.43659
778.277	16.6094	-7.43581	5.8431	5.43738
779.127	16.6172	-7.43564	5.84296	5.43786
779.977	16.4346	-7.43716	5.8418	5.43656
780.826	16.4867	-7.43776	5.84178	5.43641
781.676	16.6067	-7.43555	5.84293	5.43779
782.525	16.586	-7.43514	5.84286	5.43754
783.375	16.5789	-7.43546	5.83881	5.43752
784.225	16.3947	-7.43822	5.84068	5.43643
785.074	16.5238	-7.436295	5.83435	5.43712
785.924	16.5621	-7.43588	5.836729	5.43731
786.773	16.5877	-7.43618	5.83246	5.437686
787.623	16.465	-7.43743	5.83159	5.4372
788.473	16.4298	-7.437963	5.83177	5.43643
789.322	16.557	-7.43607	5.83096	5.43734
790.172	16.5663	-7.43533	5.81013	5.43766
791.021	16.55969	-7.43605	5.77362	5.43751
791.871	16.3586	-7.43825	5.03882	5.43626
792.7207	16.4588	-7.43736	4.61358	5.43633
793.57	16.5659	-7.43562	3.35902	5.43609
794.42	16.5451	-7.43588	2.81348	5.43631
795.27	16.4664	-7.43655	2.67146	5.435967
796.119	16.4383	-7.43773	2.54713	5.4352
796.969	16.5191	-7.435926	2.39831	5.43607
797.818	16.5386	-7.43604	2.49747	5.43642
798.668	16.5707	-7.4356	4.37479	5.43626
799.518	16.3344	-7.43834	0.827322	5.434947
800.367	16.4124	-7.43703	-0.229774	5.43564
801.2168	16.5209	-7.43548	-0.151113	5.43572
802.066	16.5243	-7.43579	-0.164368	5.43595
802.916	16.4924	-7.43623	-0.147034	5.43627
803.766	16.3907	-7.43749	-0.16922	5.4349
804.615	16.4622	-7.43665	-0.143953	5.43548
805.465	16.511	-7.436162	-0.170976	5.43611
806.314	16.5406	-7.43575	-0.144972	5.43591
807.164	16.4325	-7.4369	-0.169062	5.43567
808.014	16.4025	-7.43751	-0.154838	5.43535
808.863	16.4946	-7.436656	-0.157705	5.43547
809.713	16.5106	-7.43574	-0.161188	5.43595
810.5625	16.4642	-7.43643	-0.154979	5.43601
811.412	16.3802	-7.43709	-0.16402	5.43487
812.262	16.4913	-7.43571	-0.153469	5.43575
813.111	16.8447	-7.42855	-0.165462	5.43791
813.961	17.1616	-7.41909	-0.152882	5.4429
814.811	17.0695	-7.41366	-0.165836	5.45083
815.66	17.1201	-7.400907	-0.153712	5.46406
816.51	16.9381	-7.39566	-0.1652303	5.47288
817.359	17.0041	-7.38659	-0.155444	5.48214
818.209	16.9949	-7.37765	-0.163989	5.49202
819.059	17.0039	-7.37067	-0.15687	5.49905
819.9082	16.9867	-7.36112	-0.162739	5.50942
820.758	16.9649	-7.35335	-0.158362	5.520287
821.607	16.9414	-7.34318	-0.160958	5.53093
822.457	16.8801	-7.33587	-0.162276	5.54001
823.307	16.9159	-7.32835	-0.157696	5.54843
824.156	16.8313	-7.31748	-0.163277	5.56135
825.006	16.8643	-7.31	-0.158122	5.56909
825.855	16.8564	-7.3019	-0.163311	5.57925
826.705	16.7605	-7.29374	-0.159056	5.58804
827.555	16.8025	-7.28541	-0.162735	5.59605
828.4043	16.8881	-7.27788	-0.160043	5.60829
829.254	16.61636	-7.27085	-0.162024	5.62052
830.104	16.71829	-7.25914	-0.160926	5.62782
830.953	16.6932	-7.25161	-0.1621424	5.63578
831.803	16.5949	-7.24358	-0.1611618	5.64736
832.652	16.6813	-7.23397	-0.161819	5.65585
833.502	16.54698	-7.22757	-0.161774	5.66424
834.352	16.4812	-7.21342	-0.161444	5.6664
835.201	16.557	-7.21025	-0.162082	5.67038
836.051	16.6602	-7.20056	-0.161814	5.67566
836.9	16.5547	-7.18823	-0.16232	5.69593
837.75	16.5928	-7.18767	-0.161742	5.70238
838.6	16.578	-7.17404	-0.162675	5.71042
839.449	16.5271	-7.16703	-0.162019	5.71951
840.299	16.5085	-7.15604	-0.162744	5.73317
841.148	16.5045	-7.14626	-0.162699	5.74315
841.998	16.4859	-7.1412	-0.1629992	5.753119
842.848	16.5217	-7.13279	-0.162964	5.763082
843.697	16.5062	-7.11769	-0.163027	5.772253
844.547	16.3368	-7.114645	-0.162964	5.78283
845.396	16.4841	-7.10287	-0.162975	5.79283
846.246	16.2161	-7.09549	-0.1633182	5.808835
847.0957	16.2665	-7.08927	-0.162897	5.81328
847.945	16.3893	-7.08811	-0.16328	5.82103
848.795	16.278	-7.07623	-0.163297	5.83164
849.645	16.1842	-7.06341	-0.163273	5.83781
850.494	16.2745	-7.05573	-0.163305	5.84222
851.344	16.2997	-7.04851	-0.163622	5.84968
852.193	16.2535	-7.03808	-0.163297	5.86034
853.043	16.2422	-7.030498	-0.163532	5.87071
853.893	16.2101	-7.02138	-0.163331	5.88182
854.742	16.1179	-7.01344	-0.163559	5.89101
855.5918	16.1606	-7.00545	-0.1636119	5.89894
856.441	16.1648	-6.99674	-0.163659	5.9088
857.291	16.1334	-6.987474	-0.1636277	5.9195
858.141	16.05814	-6.97802	-0.163622	5.93043
858.99	16.0924	-6.97167	-0.163626	5.93666
859.84	16.0748	-6.96249	-0.164362	5.94699
860.689	16.1297	-6.95088	-0.1642908	5.9582
861.539	15.7681	-6.943368	-0.164405	5.972693
862.389	15.8415	-6.93674	-0.1646003	5.98671
863.238	16.0188	-6.92479	-0.164314	5.98982
864.088	15.8813	-6.91973	-0.164652	5.99881
864.9375	15.8597	-6.91064	-0.164612	6.0085
865.787	15.8537	-6.90228	-0.164856	6.01754
866.637	15.8573	-6.89494	-0.164668	6.02467
867.486	15.8844	-6.88594	-0.164941	6.0345
868.336	15.8092	-6.87696	-0.164897	6.04619
869.186	15.7873	-6.86751	-0.1649296	6.055203
870.035	15.8158	-6.85829	-0.164898	6.06543
870.885	15.7744	-6.851419	-0.164905	6.07345
871.734	15.6596	-6.84442	-0.165203	6.08759
872.584	15.6044	-6.83429	-0.165242	6.09636
873.434	15.6799	-6.82554	-0.165142	6.10499
874.2832	15.5945	-6.81814	-0.1652	6.1137
875.133	15.6157	-6.80987	-0.165293	6.12227
875.982	15.5996	-6.801	-0.165158	6.13301
876.832	15.5479	-6.79088	-0.165224	6.143
877.682	15.528	-6.78364	-0.165184	6.15375
878.531	15.4521	-6.77619	-0.165184	6.162786
879.381	15.487	-6.76693	-0.165231	6.17109
880.23	15.4318	-6.75797	-0.165234	6.18144
881.08	15.4368	-6.74965	-0.165145	6.19233
881.93	15.1565	-6.74203	-0.165153	6.2055
882.7793	15.3339	-6.73242	-0.165248	6.21065
883.629	15.2855	-6.72477	-0.165126	6.22184
884.479	15.3133	-6.71556	-0.165207	6.23174
885.328	15.3778	-6.70379	-0.16519	6.2422
886.178	15.1474	-6.69888	-0.165184	6.27022
887.027	15.0615	-6.69009	-0.165159	6.27748
887.877	15.18142	-6.67628	-0.1655449	6.28126
888.727	15.0507	-6.67412	-0.165195	6.28864
889.576	15.0894	-6.66344	-0.165432	6.29339
890.426	15.0284	-6.65726	-0.1655127	6.29933
891.275	15.0366	-6.64895	-0.165468	6.3091
892.125	15.06	-6.638392	-0.165441	6.31965
892.975	14.9383	-6.631711	-0.165451	6.33139
893.824	14.9755	-6.62067	-0.165549	6.34086
894.674	14.9623	-6.61338	-0.165528	6.34878
895.523	14.9395	-6.606452	-0.165456	6.3599
896.373	14.9559	-6.59386	-0.1655454	6.37101
897.223	14.8648	-6.5862	-0.165468	6.38457
898.072	14.7919	-6.57892	-0.165514	6.3947
898.922	14.7057	-6.5703	-0.165796	6.403317
899.771	14.7656	-6.56327	-0.165804	6.41057
900.621	14.7141	-6.555306	-0.165836	6.4221
901.4707	14.6822	-6.54745	-0.165723	6.4345
902.32	14.6043	-6.53703	-0.165512	6.442
903.17	14.6506	-6.52918	-0.165767	6.44709
904.02	14.6494	-6.52033	-0.165757	6.45845
904.869	14.6067	-6.50885	-0.165815	6.47458
905.719	14.4626	-6.50263	-0.165859	6.481699
906.568	14.4597	-6.49784	-0.16573	6.494359
907.418	14.5064	-6.48783	-0.165745	6.50828
908.268	14.4167	-6.47969	-0.165847	6.52631
909.117	14.3612	-6.468977	-0.165762	6.536346
909.9668	14.1523	-6.46183	-0.165843	6.54659
910.816	14.402	-6.453	-0.166166	6.55536
911.666	14.2267	-6.44334	-0.166163	6.565414
912.516	14.1721	-6.4346	-0.166101	6.57741
913.365	14.1768	-6.42594	-0.166168	6.58518
914.215	14.1226	-6.41917	-0.166198	6.5928
915.064	14.1321	-6.410429	-0.166118	6.60303
915.914	14.0905	-6.40174	-0.166188	6.61343
916.764	14.0511	-6.39261	-0.166179	6.62405
917.613	14.0133	-6.38448	-0.166472	6.634007
918.463	13.9953	-6.37601	-0.16612	6.64241
919.3125	13.94428	-6.367487	-0.166478	6.65262
920.162	13.92	-6.35867	-0.166127	6.66343
921.012	13.8537	-6.34954	-0.166435	6.67425
921.861	13.7994	-6.34163	-0.166197	6.68339
922.711	13.792	-6.33413	-0.166161	6.69261
923.561	13.7826	-6.32479	-0.166221	6.70246
924.41	13.7279	-6.316278	-0.166488	6.71301
925.26	13.6735	-6.30724	-0.166509	6.72411
926.109	13.6286	-6.29973	-0.166405	6.73356
926.959	13.5909	-6.29132	-0.16647	6.741828
927.809	13.5583	-6.28195	-0.166199	6.75307
928.6582	13.5389	-6.27407	-0.1664235	6.76342
929.508	13.4752	-6.26449	-0.166542	6.7736
930.357	13.4088	-6.25736	-0.16649	6.78267
931.207	13.3887	-6.24911	-0.1665	6.7923
932.057	13.3686	-6.24065	-0.166524	6.80258
932.906	13.3262	-6.23226	-0.166542	6.81221
933.756	13.29	-6.22294	-0.166415	6.82361
934.605	13.2367	-6.21502	-0.16653	6.83176
935.455	13.1812	-6.20638	-0.166578	6.84205
936.305	13.1681	-6.19765	-0.16646	6.85323
937.1543	13.1336	-6.18832	-0.166515	6.86283
938.004	13.0555	-6.18106	-0.16652	6.87361
938.854	13.0411	-6.17203	-0.166524	6.88269
939.703	13.0046	-6.16365	-0.166793	6.89306
940.553	12.9533	-6.15509	-0.166541	6.90243
941.402	12.91024	-6.14634	-0.16677	6.91349
942.252	12.8608	-6.13785	-0.16679	6.9236
943.102	12.8412	-6.12979	-0.166854	6.93171
943.951	12.7442	-6.12118	-0.1667558	6.94303
944.801	12.7451	-6.11205	-0.166531	6.95372
945.65	12.682	-6.10365	-0.166821	6.96367
946.5	12.6465	-6.096384	-0.1668373	6.9725
947.35	12.6221	-6.08777	-0.166746	6.9835
948.199	12.5538	-6.0783	-0.1668295	6.99406
949.049	12.4851	-6.06996	-0.166855	7.00409
949.898	12.4705	-6.06129	-0.166771	7.01338
950.748	12.4179	-6.05336	-0.166868	7.02269
951.598	12.364	-6.04419	-0.166764	7.03355
952.447	12.3103	-6.03594	-0.166814	7.04466
953.297	12.2788	-6.0267	-0.167168	7.05492
954.146	12.18505	-6.01866	-0.1668644	7.06452
954.996	12.172	-6.010211	-0.167069	7.07441
955.8457	12.1367	-6.00242	-0.167103	7.08497
956.695	12.077	-5.99322	-0.167164	7.09587
957.545	12.01069	-5.98524	-0.16709	7.10634
958.395	11.9475	-5.97648	-0.167131	7.11452
959.244	11.9325	-5.9677	-0.16713	7.12473
960.094	11.8647	-5.95927	-0.167131	7.136179
960.943	11.8135	-5.95122	-0.1670775	7.14646
961.793	11.7894	-5.94205	-0.1671627	7.15659
962.643	11.7361	-5.93442	-0.167099	7.165679
963.492	11.6813	-5.92558	-0.167167	7.17553
964.3418	11.636	-5.91701	-0.167171	7.18685
965.191	11.5686	-5.90796	-0.167066	7.19825
966.041	11.4986	-5.89988	-0.167141	7.20793
966.891	11.45122	-5.89197	-0.167135	7.21632
967.74	11.4295	-5.88346	-0.167066	7.22736
968.59	11.3487	-5.8748	-0.167125	7.23827
969.439	11.2861	-5.86598	-0.167123	7.2494
970.289	11.2481	-5.85772	-0.167415	7.25898
971.139	11.2176	-5.84921	-0.167151	7.26741
971.988	11.1368	-5.8396	-0.167486	7.27932
972.838	11.0938	-5.83276	-0.167067	7.28978
973.6875	10.9947	-5.82331	-0.167466	7.30084
974.537	10.904	-5.81591	-0.1674165	7.31026
975.387	10.8815	-5.8071	-0.1673878	7.32037
976.236	10.8284	-5.79728	-0.167142	7.33183
977.086	10.76373	-5.7891	-0.167456	7.34255
977.936	10.6855	-5.78101	-0.167424	7.35386
978.785	10.6099	-5.77342	-0.167508	7.3615
979.635	10.5417	-5.76433	-0.167448	7.37256
980.484	10.4843	-5.75526	-0.167416	7.38437
981.334	10.4132	-5.74711	-0.167498	7.39435
982.184	10.24867	-5.73829	-0.167356	7.40681
983.0332	3.21027	-5.73203	-0.167181	7.44572
983.883	3.52376	-5.72225	-0.169053	7.4496
984.732	3.83824	-5.7129	-0.16714	7.45465
985.582	4.08273	-5.7045	-0.169307	7.4592
986.432	4.143415	-5.69606	-0.167144	7.46685
987.281	3.96656	-5.68817	-0.168968	7.47805
988.131	3.45067	-5.67791	-0.167388	7.49493
988.98	0.00354701	-5.671298	-0.169379	6.98266
989.83	-0.00204777	-5.66186	-0.171941	7.25587
990.68	-0.0118608	-5.65411	-0.172306	7.26581
991.5293	-0.00234359	-5.645339	-0.172777	7.27586
992.379	0.000165409	-5.636169	-0.171936	7.28767
993.229	-0.0117664	-5.627768	-0.17284	7.29854
994.078	-0.00760445	-5.62367	-0.171939	7.3054
994.107	-0.0106364	-5.62417	-0.172549	7.30534