File: shares/flx_lsms_hydrogen/EXPERIMENTAL_DATA/LABO_SOETE/WP1_TENSILE/H2_HC1/MTS/HYA5/specimen.dat
MTS793|MPT|ENU|1|2|.|/|:|1|0|0|A

Data Acquisition						Time:	15.0205	s	1/18/2022 2:38:01 PM
Time	ESH B Force	ESH B Displacement	Analog In 2	Analog In 1
s	kN	mm	V	V
0.0332031	0.0536815	-18.0002	-0.1224744	0.00499344
0.868164	0.0594628	-17.9916	-0.122462	0.00522464
1.703125	0.0700174	-17.9835	-0.12244	0.00541898
2.53809	0.0833271	-17.9743	-0.122364	0.00558774
3.37305	0.100029	-17.9671	-0.122119	0.00548826
4.20801	0.11543	-17.9584	-0.122442	0.00514811
5.04297	0.135531	-17.9503	-0.122155	0.00550522
5.87793	0.15835	-17.9413	-0.12202	0.00588212
6.71289	0.187229	-17.9325	-0.121741	0.00602851
7.54785	0.212004	-17.9248	-0.121829	0.00597587
8.38281	0.235822	-17.9173	-0.121841	0.005750447
9.21777	0.267386	-17.9078	-0.121528	0.00597259
10.0527	0.296786	-17.8996	-0.121466	0.00646662
10.8877	0.327893	-17.8923	-0.1211	0.00639832
11.7227	0.35968	-17.8833	-0.121133	0.00632579
12.5576	0.39083	-17.875	-0.121096	0.00655136
13.3926	0.439156	-17.8663	-0.120897	0.00650494
14.2275	0.495613	-17.858	-0.1205693	0.00700206
15.0625	0.556433	-17.84959	-0.1202473	0.00736564
15.8975	0.638995	-17.8416	-0.120044	0.00742763
16.7324	0.71685	-17.8333	-0.119748	0.00760429
17.5674	0.825965	-17.8243	-0.119365	0.00817871
18.4023	0.948675	-17.8158	-0.118775	0.00902573
19.2373	1.0866	-17.8081	-0.1185094	0.00933656
20.0723	1.20021	-17.8006	-0.11789	0.009448301
20.9072	1.36574	-17.7913	-0.117345	0.010697
21.7422	1.53618	-17.7825	-0.1166992	0.0111346
22.5771	1.72188	-17.7735	-0.116064	0.0117489
23.4121	1.8831	-17.7665	-0.115478	0.012266
24.24707	2.05793	-17.7579	-0.114832	0.013021
25.082	2.24219	-17.7488	-0.1139	0.0141493
25.917	2.44715	-17.7411	-0.112968	0.0148727
26.752	2.63347	-17.7328	-0.112139	0.0155427
27.5869	2.833	-17.7255	-0.1114411	0.0163673
28.4219	3.02899	-17.7156	-0.110514	0.0175461
29.2568	3.28622	-17.7081	-0.109628	0.0184942
30.0918	3.561368	-17.6967	-0.108223	0.0195462
30.9268	3.719	-17.691	-0.107917	0.0200093
31.7617	3.96607	-17.6818	-0.106908	0.0212027
32.59668	4.19295	-17.67432	-0.1059259	0.0222307
33.4316	4.45895	-17.66571	-0.105163	0.0229894
34.2666	4.73193	-17.6577	-0.103518	0.0242867
35.1016	4.99409	-17.6483	-0.102599	0.0254558
35.9365	5.287508	-17.6402	-0.101379	0.02643704
36.7715	5.539288	-17.6323	-0.100519	0.0271295
37.6064	5.81737	-17.6237	-0.0992355	0.0286183
38.4414	6.10895	-17.61636	-0.0980132	0.0300001
39.2764	6.3905	-17.60746	-0.0964664	0.0312478
40.1113	6.69281	-17.59886	-0.0956782	0.0320088
40.9463	7.00772	-17.5911	-0.0944544	0.0334612
41.78125	7.3069	-17.5824	-0.0932124	0.034911
42.6162	7.65675	-17.5747	-0.0916481	0.0361147
43.4512	7.96151	-17.5662	-0.0901741	0.0371873
44.2861	8.27328	-17.5579	-0.0889116	0.0387183
45.1211	8.60719	-17.54924	-0.0873792	0.0404246
45.9561	8.950983	-17.5404	-0.08586	0.0413796
46.791	9.32142	-17.5332	-0.0843735	0.0427026
47.626	9.69611	-17.5228	-0.0828619	0.0448102
48.4609	10.0169	-17.51576	-0.0811711	0.0462012
49.2959	10.3108	-17.5076	-0.0800232	0.0474741
50.1309	10.6584	-17.5	-0.0783113	0.048863
50.96582	11.0601	-17.4891	-0.0763495	0.05088117
51.8008	11.3851	-17.4812	-0.0745632	0.05280694
52.6357	11.67406	-17.4743	-0.0727738	0.0540981
53.4707	11.9585	-17.4653	-0.0713178	0.0553917
54.3057	12.2729	-17.458	-0.0693651	0.0575116
55.1406	12.6664	-17.4483	-0.0668252	0.0601735
55.9756	12.9417	-17.4401	-0.0642195	0.0624475
56.8105	13.177	-17.4307	-0.0623738	0.0639932
57.6455	13.4166	-17.4226	-0.0598936	0.0662486
58.4805	13.7007	-17.4147	-0.0573535	0.068993
59.31543	13.9398	-17.4072	-0.0547025	0.071667
60.1504	14.1736	-17.3985	-0.0519516	0.0737334
60.9854	14.3379	-17.38973	-0.0489632	0.0765296
61.8203	14.5656	-17.3818	-0.0461003	0.0798162
62.6553	14.7433	-17.3734	-0.0423825	0.0834652
63.4902	14.9145	-17.3668	-0.0385419	0.08678887
64.3252	15.05316	-17.3557	-0.0348756	0.0900129
65.1602	15.1637	-17.3491	-0.0311279	0.09354268
65.9951	15.27	-17.3411	-0.0270887	0.097335
66.8301	15.4244	-17.3322	-0.0232153	0.101238
67.665	15.4808	-17.32394	-0.0189606	0.105157
68.5	15.60591	-17.31358	-0.0137519	0.1099411
69.335	15.6327	-17.3072	-0.0095731	0.113813
70.1699	15.6982	-17.2991	-0.00554573	0.117695
71.0049	15.7983	-17.2906	-0.00127065	0.122157
71.8398	15.86101	-17.28215	0.003858885	0.126524
72.6748	15.885	-17.2731	0.00864847	0.131112
73.5098	15.9422	-17.2651	0.0132637	0.135777
74.3447	15.9859	-17.2567	0.0179136	0.140076
75.1797	16.053	-17.2488	0.0228251	0.145027
76.0146	16.1027	-17.2398	0.02817931	0.149672
76.8496	16.1121	-17.2313	0.0333638	0.154263
77.68457	16.1549	-17.22382	0.0380135	0.1592198
78.5195	16.164	-17.2161	0.0432325	0.1642881
79.3545	16.2114	-17.2061	0.0486847	0.169168
80.1895	16.2567	-17.1983	0.0538133	0.174076
81.0244	16.2281	-17.1901	0.0590602	0.1791842
81.8594	16.2501	-17.1819	0.0646643	0.184622
82.6943	16.2969	-17.1743	0.0692514	0.188697
83.5293	16.3056	-17.16527	0.07467024	0.194044
84.3643	16.3436	-17.1561	0.0798822	0.19929
85.1992	16.3254	-17.1479	0.085399	0.204696
86.03418	16.3515	-17.1401	0.0902379	0.2094674
86.8691	16.3767	-17.1315	0.0954046	0.214154
87.7041	16.4167	-17.12266	0.100828	0.21951
88.5391	16.4147	-17.1154	0.106058	0.224805
89.374	16.4341	-17.1055	0.112175	0.230526
90.209	16.4432	-17.0971	0.1175624	0.235916
91.0439	16.4674	-17.0889	0.122511	0.240884
91.8789	16.4977	-17.08116	0.127803	0.245973
92.7139	16.4835	-17.0727	0.133236	0.251251
93.5488	16.5043	-17.0648	0.138696	0.256162
94.3838	16.5222	-17.056	0.143951	0.261558
95.21875	16.5597	-17.048	0.149153	0.266771
96.0537	16.5112	-17.0392	0.155884	0.273188
96.8887	16.5328	-17.031	0.159844	0.277249
97.7236	16.6104	-17.021	0.165676	0.282937
98.5586	16.5205	-17.0146	0.171494	0.288651
99.3936	16.6907	-17.0049	0.176036	0.29322
100.229	16.5107	-16.9977	0.1815719	0.298604
101.063	16.6077	-16.9895	0.186406	0.303361
101.898	16.6159	-16.9804	0.191982	0.308659
102.7334	16.6068	-16.9724	0.1994759	0.316312
103.568	16.5922	-16.96559	0.2025	0.318939
104.403	16.64465	-16.9577	0.20725	0.323716
105.238	16.6629	-16.9495	0.2128824	0.329233
106.073	16.67864	-16.9401	0.21817	0.3346
106.9082	16.6583	-16.9319	0.223237	0.339556
107.743	16.7088	-16.9234	0.228176	0.344186
108.578	16.7069	-16.9158	0.233886	0.349538
109.413	16.6941	-16.9069	0.239744	0.355576
110.248	16.7023	-16.8976	0.245094	0.3612636
111.083	16.7225	-16.8902	0.250157	0.365991
111.918	16.738	-16.8824	0.255043	0.370312
112.753	16.765	-16.873	0.260296	0.375506
113.588	16.77166	-16.8651	0.266115	0.381688
114.423	16.9493	-16.8551	0.272997	0.388881
115.258	16.7424	-16.8445	0.282099	0.397548
116.093	16.7643	-16.8397	0.287289	0.402324
116.928	16.65164	-16.8306	0.290166	0.405364
117.7627	16.7635	-16.8223	0.293167	0.40825
118.598	16.8751	-16.81459	0.298184	0.413373
119.433	16.8386	-16.8066	0.304136	0.418648
120.268	16.8621	-16.7981	0.307988	0.422904
121.103	16.8909	-16.7899	0.313379	0.427742
121.9375	16.9229	-16.7803	0.319113	0.433487
122.772	16.8966	-16.7732	0.325859	0.440282
123.607	16.8408	-16.7645	0.329755	0.443944
124.442	16.925	-16.75663	0.333996	0.448088
125.277	16.9743	-16.7477	0.345041	0.458964
126.1123	16.9148	-16.7424	0.35249	0.466509
126.947	16.8871	-16.7294	0.355453	0.469432
127.782	16.813	-16.7212	0.358484	0.472162
128.617	16.8978	-16.71438	0.360908	0.474416
129.452	16.96376	-16.70657	0.3664616	0.480277
130.287	16.9762	-16.6975	0.371602	0.485453
131.122	17.1192	-16.6907	0.379552	0.4926306
131.957	17.036	-16.6793	0.3902221	0.502974
132.792	16.8531	-16.6719	0.393568	0.5064131
133.627	16.8699	-16.665	0.3947812	0.508026
134.462	17.008	-16.6556	0.3984071	0.511328
135.297	17.03	-16.6471	0.403597	0.516378
136.132	16.9848	-16.6389	0.408842	0.52168
136.9668	17.0156	-16.6313	0.413769	0.526563
137.802	17.0642	-16.6232	0.419149	0.531385
138.637	17.10813	-16.6118	0.425912	0.53781
139.472	16.9846	-16.6068	0.44097	0.5535031
140.307	17.1906	-16.5964	0.445468	0.558627
141.1416	17.0654	-16.5905	0.452676	0.565561
141.977	17.08252	-16.5829	0.458046	0.571164
142.812	17.02792	-16.5696	0.461363	0.574166
143.646	17.2467	-16.5633	0.465908	0.578928
144.481	17.191	-16.5539	0.473427	0.585665
145.316	17.01947	-16.5469	0.478647	0.591043
146.151	17.1637	-16.537	0.484377	0.596795
146.986	17.2024	-16.526	0.488096	0.600151
147.821	17.12487	-16.5247	0.492616	0.60436
148.656	17.1387	-16.5134	0.495482	0.607274
149.491	17.15712	-16.504	0.499718	0.611155
150.326	17.1151	-16.50034	0.501576	0.613197
151.161	17.102	-16.4889	0.504442	0.615923
151.996	17.2129	-16.4804	0.507022	0.618475
152.831	17.3399	-16.4704	0.517602	0.628727
153.666	17.1816	-16.4625	0.524515	0.636319
154.501	17.34544	-16.4553	0.528828	0.640493
155.336	17.3221	-16.4462	0.541518	0.652905
156.1709	17.3021	-16.4391	0.548322	0.659581
157.006	17.2431	-16.4288	0.553006	0.664223
157.841	17.2024	-16.4221	0.555979	0.667015
158.676	17.0922	-16.4212	0.557077	0.668038
159.511	17.1432	-16.4058	0.558736	0.669363
160.3457	17.1549	-16.3973	0.560609	0.6715765
161.181	17.3032	-16.3884	0.563944	0.6748122
162.016	17.3515	-16.3806	0.569604	0.680295
162.851	17.6176	-16.3634	0.575116	0.685787
163.686	17.3257	-16.3634	0.582597	0.69288
164.521	17.407	-16.3566	0.588551	0.698897
165.355	17.33466	-16.3464	0.594984	0.705104
166.19	17.3106	-16.3378	0.598601	0.707867
167.025	17.4764	-16.3301	0.605021	0.714312
167.86	17.4658	-16.3233	0.617279	0.727063
168.695	17.3705	-16.3129	0.6230045	0.732814
169.53	17.2164	-16.3102	0.625823	0.735266
170.365	17.1656	-16.29776	0.627079	0.736919
171.2002	17.1476	-16.2889	0.627684	0.737425
172.035	17.29965	-16.2802	0.633703	0.74319
172.87	17.4257	-16.2721	0.63646	0.745869
173.705	17.4763	-16.2612	0.642969	0.752446
174.54	17.3397	-16.2549	0.6475901	0.7567454
175.375	17.5024	-16.2474	0.65146	0.760392
176.21	17.43071	-16.2378	0.658221	0.766545
177.045	17.46431	-16.2303	0.663376	0.771723
177.88	17.4701	-16.2212	0.668256	0.7768054
178.715	17.4568	-16.2142	0.673703	0.782216
179.5498	17.5797	-16.2042	0.678525	0.783687
180.385	17.5386	-16.1965	0.684075	0.788736
181.22	17.7004	-16.1816	0.691646	0.796601
182.055	17.6578	-16.1807	0.703993	0.808661
182.89	17.582	-16.1725	0.712995	0.81834
183.725	17.5237	-16.1623	0.720106	0.825273
184.56	17.5435	-16.1542	0.724689	0.8291871
185.395	17.4235	-16.1474	0.727331	0.831823
186.229	17.3754	-16.1379	0.730213	0.8345803
187.064	17.4017	-16.1321	0.731376	0.835941
187.899	17.6185	-16.1232	0.7382	0.842429
188.734	17.6561	-16.1115	0.743089	0.846871
189.569	17.671	-16.1048	0.750078	0.853998
190.4043	17.62328	-16.0964	0.758915	0.862352
191.239	17.5988	-16.0884	0.764413	0.868149
192.074	17.5721	-16.0795	0.769068	0.872487
192.909	17.5792	-16.069	0.771977	0.875348
193.744	17.483	-16.0648	0.774724	0.877713
194.5791	17.4285	-16.0572	0.775964	0.879164
195.414	17.6783	-16.0467	0.778878	0.882011
196.249	17.5611	-16.0383	0.785162	0.887892
197.084	17.5782	-16.0293	0.787897	0.891032
197.919	17.6723	-16.021	0.79256	0.895809
198.754	17.6662	-16.0128	0.797168	0.900686
199.589	17.7336	-16.0051	0.804994	0.908066
200.424	17.6115	-15.9966	0.810382	0.91299
201.259	17.7478	-15.9873	0.813828	0.91684
202.094	17.78001	-15.9756	0.826794	0.929266
202.929	17.5769	-15.9708	0.830547	0.933082
203.764	17.522	-15.9624	0.831691	0.934119
204.599	17.7331	-15.9549	0.83658	0.938746
205.434	17.6832	-15.9421	0.847323	0.949501
206.269	17.7072	-15.9388	0.8512724	0.953215
207.104	17.7686	-15.92945	0.856398	0.958466
207.938	17.87719	-15.9209	0.8631165	0.965326
208.773	17.73638	-15.914	0.870628	0.9729296
209.6084	17.8532	-15.9048	0.876988	0.9789114
210.443	17.892	-15.8966	0.88532	0.98684
211.278	17.78351	-15.8874	0.892981	0.9942795
212.113	17.7668	-15.8797	0.898879	1.00041
212.948	17.7979	-15.8703	0.903689	1.00522
213.7832	17.78664	-15.8601	0.909178	1.01001
214.618	17.6688	-15.85433	0.9109714	1.01188
215.453	17.833	-15.8462	0.918763	1.0199
216.288	17.8025	-15.8386	0.923228	1.0246
217.123	17.797	-15.8245	0.926224	1.02722
217.958	17.7113	-15.8164	0.929036	1.02974
218.793	17.6444	-15.8122	0.930625	1.0314
219.628	17.6398	-15.8049	0.932137	1.03307
220.463	17.8784	-15.7966	0.936432	1.03696
221.298	17.8257	-15.7945	0.944924	1.045197
222.133	18.038	-15.7779	0.954761	1.05477
222.968	17.71677	-15.7709	0.963649	1.06085
223.803	17.96586	-15.764	0.96883	1.06606
224.6377	17.7161	-15.7534	0.9739002	1.07098
225.473	17.8071	-15.7488	0.979418	1.0764
226.308	17.7791	-15.737	0.985253	1.08242
227.143	17.801	-15.7288	0.987975	1.08496
227.978	17.8553	-15.71908	0.994321	1.09081
228.8125	17.8646	-15.7122	0.998386	1.09502
229.647	17.8538	-15.7014	1.00213	1.09861
230.482	17.9095	-15.697	1.00586	1.102674
231.317	17.9049	-15.68887	1.01079	1.10677
232.152	17.781	-15.6811	1.01325	1.10955
232.9873	17.7981	-15.6697	1.01541	1.11196
233.822	17.9008	-15.6615	1.01855	1.11463
234.657	17.8808	-15.6526	1.02343	1.11928
235.492	18.0062	-15.6452	1.02976	1.12568
236.327	17.9405	-15.638	1.03601	1.13173
237.162	18.0068	-15.6249	1.04264	1.138085
237.997	17.8748	-15.621	1.05635	1.15228
238.832	17.8738	-15.6122	1.06152	1.15813
239.667	17.8171	-15.5999	1.06479	1.161536
240.502	17.7303	-15.5969	1.06615	1.16279
241.337	17.687	-15.587	1.06676	1.16368
242.172	17.8764	-15.5788	1.06908	1.16567
243.007	17.9831	-15.5704	1.074	1.17071
243.8418	17.9841	-15.5612	1.07987	1.17628
244.677	17.9365	-15.5533	1.08473	1.180809
245.512	18.0111	-15.5454	1.08886	1.18496
246.347	18.0635	-15.5366	1.09605	1.19203
247.182	18.0128	-15.5286	1.10273	1.19849
248.0166	18.0065	-15.5202	1.11162	1.20738
248.852	17.9291	-15.5123	1.11586	1.21113
249.687	18.14995	-15.5017	1.12118	1.2163
250.521	17.9004	-15.4946	1.1272	1.22198
251.356	17.9443	-15.4853	1.13094	1.226
252.191	17.9896	-15.4776	1.13514	1.2304
253.026	18.0328	-15.4702	1.13849	1.23361
253.861	17.9864	-15.462	1.15249	1.24771
254.696	17.9697	-15.4551	1.15617	1.25114
255.531	17.92935	-15.44514	1.15925	1.25424
256.366	17.9768	-15.4371	1.16222	1.25686
257.201	18.1619	-15.4278	1.17658	1.27108
258.036	17.9886	-15.41979	1.1849	1.27959
258.871	17.8874	-15.4123	1.18822	1.282586
259.706	18.1377	-15.4042	1.19364	1.28803
260.541	18.0576	-15.39592	1.20196	1.29613
261.376	17.8482	-15.3876	1.20377	1.29841
262.211	17.9604	-15.3807	1.20795	1.30217
263.0459	18.0409	-15.3726	1.21316	1.3075
263.881	18.0478	-15.361	1.220085	1.3145
264.716	18.0994	-15.3533	1.22563	1.31972
265.551	18.1071	-15.3471	1.22958	1.32381
266.386	17.9608	-15.3389	1.237313	1.33103
267.2207	18.0003	-15.3252	1.24399	1.33775
268.056	18.0962	-15.3206	1.24826	1.34185
268.891	18.0179	-15.3098	1.25368	1.34698
269.726	18.1191	-15.3037	1.25644	1.35114
270.561	18.1374	-15.2951	1.26201	1.35658
271.396	18.0613	-15.2899	1.26664	1.36136
272.23	17.9848	-15.2862	1.26892	1.36357
273.065	17.9383	-15.273	1.27018	1.36462
273.9	17.9286	-15.2629	1.2717	1.36599
274.735	18.0424	-15.2528	1.274127	1.36862
275.57	18.1156	-15.2456	1.27894	1.37341
276.405	18.1533	-15.2359	1.28416	1.37799
277.24	18.0901	-15.2242	1.29097	1.38469
278.0752	18.1595	-15.2188	1.29394	1.38819
278.91	18.2173	-15.2122	1.30191	1.395869
279.745	18.1187	-15.2032	1.30797	1.40165
280.58	18.2744	-15.1941	1.31342	1.40326
281.415	18.1013	-15.1884	1.328898	1.4184
282.25	17.96649	-15.1793	1.33066	1.42103
283.085	17.9578	-15.1692	1.33218	1.4225
283.92	17.9325	-15.1621	1.33339	1.423435
284.755	18.1496	-15.1528	1.33697	1.42692
285.59	18.1646	-15.1443	1.34129	1.4311
286.4248	18.213	-15.1367	1.34709	1.43679
287.26	18.1686	-15.1279	1.3523	1.4422
288.095	18.192	-15.1196	1.357448	1.44721
288.93	18.1879	-15.1108	1.363301	1.45234
289.765	18.1933	-15.1031	1.36793	1.45696
290.6	18.2095	-15.094	1.37304	1.46257
291.435	18.2044	-15.0857	1.37887	1.46819
292.27	18.2128	-15.0753	1.3989	1.48773
293.104	18.1346	-15.0694	1.403218	1.49237
293.939	18.094	-15.0637	1.408751	1.498
294.774	18.0618	-15.0524	1.41144	1.50089
295.609	18.282	-15.0441	1.4204	1.50944
296.444	18.129	-15.0377	1.42524	1.51427
297.2793	18.0729	-15.0286	1.42805	1.51659
298.114	18.0012	-15.0196	1.42918	1.51772
298.949	17.9595	-15.0115	1.430418	1.51946
299.784	18.1299	-15.0028	1.43359	1.52242
300.619	18.2395	-14.9934	1.43777	1.52642
301.4541	18.2132	-14.9842	1.44379	1.5323
302.289	18.1733	-14.9765	1.44839	1.53675
303.124	18.1948	-14.9703	1.4534	1.541595
303.959	18.25803	-14.9611	1.45883	1.547
304.794	18.24818	-14.9543	1.46765	1.55519
305.629	18.1897	-14.9439	1.47125	1.55958
306.464	18.256	-14.9347	1.47565	1.56415
307.299	18.258	-14.929	1.48119	1.56971
308.134	18.0631	-14.9221	1.49141	1.5794
308.969	18.0856	-14.9107	1.49382	1.58171
309.804	18.2545	-14.902	1.49693	1.58508
310.639	18.3127	-14.8937	1.51021	1.59867
311.474	18.1473	-14.88647	1.51528	1.60307
312.309	18.0726	-14.8763	1.51677	1.60467
313.144	18.1892	-14.8674	1.51804	1.60601
313.979	18.2244	-14.8609	1.522604	1.61075
314.813	18.2424	-14.8527	1.52666	1.614951
315.648	18.2888	-14.8437	1.53236	1.62034
316.4834	18.32756	-14.8347	1.53784	1.625434
317.318	18.3109	-14.8259	1.5437	1.63158
318.153	18.32197	-14.8179	1.54891	1.63687
318.988	18.3152	-14.8096	1.55383	1.64186
319.823	18.2595	-14.8019	1.56054	1.64805
320.6582	18.5062	-14.7943	1.56894	1.65661
321.493	18.1603	-14.7867	1.57885	1.66652
322.328	18.1461	-14.77538	1.58091	1.66865
323.163	18.3012	-14.76987	1.5852	1.67274
323.998	18.3325	-14.7637	1.60101	1.68833
324.833	18.2727	-14.7531	1.60655	1.69429
325.668	18.202	-14.7422	1.61214	1.69972
326.503	18.3322	-14.73342	1.6157	1.70295
327.338	18.24922	-14.7271	1.620524	1.70797
328.173	18.3487	-14.7189	1.63008	1.71707
329.008	18.3884	-14.7109	1.63462	1.72188
329.843	18.3016	-14.6959	1.64139	1.72832
330.678	18.2173	-14.6937	1.644419	1.7316
331.5127	18.4343	-14.68553	1.64778	1.73473
332.348	18.36124	-14.6746	1.65533	1.74187
333.183	18.219	-14.6717	1.65845	1.74504
334.018	18.3026	-14.6599	1.66421	1.751121
334.853	18.3284	-14.6526	1.66842	1.75501
335.6875	18.1454	-14.6441	1.67147	1.7577
336.522	18.1946	-14.6335	1.673403	1.75974
337.357	18.4048	-14.6249	1.6771	1.76365
338.192	18.36714	-14.618	1.684338	1.77037
339.027	18.3459	-14.60348	1.694263	1.779958
339.8623	18.1652	-14.6031	1.69712	1.77966
340.697	18.22378	-14.5928	1.69925	1.78198
341.532	18.3071	-14.5873	1.70229	1.784703
342.367	18.5009	-14.5778	1.708967	1.79119
343.202	18.2429	-14.5669	1.72441	1.80686
344.037	18.3453	-14.5592	1.72841	1.81098
344.872	18.2976	-14.5475	1.73716	1.81951
345.707	18.2998	-14.5416	1.73956	1.822024
346.542	18.3671	-14.5337	1.74362	1.826588
347.377	18.34919	-14.5268	1.74821	1.83144
348.212	18.3137	-14.5181	1.7528	1.83594
349.047	18.29295	-14.5103	1.75916	1.842116
349.882	18.34449	-14.5031	1.764	1.8473
350.7168	18.33992	-14.49371	1.76961	1.85306
351.552	18.3308	-14.4849	1.77467	1.85795
352.387	18.42911	-14.4767	1.77958	1.86259
353.222	18.546	-14.4709	1.78557	1.86889
354.057	18.3172	-14.45882	1.79333	1.87692
354.8916	18.3645	-14.4517	1.7963	1.88006
355.727	18.3441	-14.4428	1.80117	1.88476
356.562	18.3573	-14.435	1.80704	1.8903
357.396	18.3533	-14.4271	1.81257	1.89588
358.231	18.3454	-14.4194	1.81781	1.90117
359.066	18.3347	-14.4129	1.82537	1.908754
359.901	18.2987	-14.4011	1.82909	1.91223
360.736	18.4228	-14.3931	1.83329	1.91642
361.571	18.3695	-14.3852	1.83879	1.92218
362.406	18.4318	-14.3756	1.84462	1.92812
363.241	18.3923	-14.3667	1.85135	1.93417
364.076	18.3685	-14.3588	1.85557	1.938309
364.911	18.3577	-14.3525	1.86067	1.9438
365.746	18.3947	-14.34263	1.86607	1.9491
366.581	18.4254	-14.3342	1.87214	1.955133
367.416	18.3919	-14.327	1.87755	1.9603
368.251	18.4281	-14.31826	1.88241	1.96538
369.086	18.4035	-14.3102	1.887429	1.97055
369.9209	18.4401	-14.301	1.89339	1.97626
370.756	18.4586	-14.292	1.89861	1.981421
371.591	18.4595	-14.2827	1.90438	1.98719
372.426	18.3422	-14.2758	1.9097	1.99288
373.261	18.3045	-14.2684	1.91522	1.99862
374.0957	18.264	-14.26	1.9213	2.00398
374.931	18.4399	-14.2541	1.92553	2.00786
375.766	18.4465	-14.2421	1.93138	2.01435
376.601	18.4209	-14.2336	1.93653	2.01966
377.436	18.3667	-14.227	1.94104	2.02398
378.271	18.4151	-14.2186	1.94658	2.02924
379.105	18.426	-14.21	1.95233	2.03535
379.94	18.468	-14.2013	1.95756	2.04068
380.775	18.3766	-14.194	1.9633	2.046603
381.61	18.4115	-14.1848	1.9678	2.050998
382.445	18.6888	-14.173	1.97345	2.05658
383.28	18.4694	-14.1664	1.97895	2.06216
384.115	18.4374	-14.1596	1.98471	2.06771
384.9502	18.4654	-14.15	1.99141	2.07449
385.785	18.4472	-14.142	1.99854	2.08156
386.62	18.3102	-14.1334	2.00331	2.08626
387.455	18.278	-14.1271	2.00963	2.092993
388.29	18.55822	-14.1168	2.0149	2.09805
389.125	18.2749	-14.1083	2.01834	2.1018
389.96	18.3535	-14.1016	2.0225	2.10556
390.795	18.4657	-14.0933	2.03103	2.11416
391.63	18.3448	-14.0845	2.03359	2.11695
392.465	18.381	-14.0761	2.03874	2.12006
393.2998	18.4904	-14.06568	2.04388	2.12488
394.135	18.4747	-14.0579	2.04877	2.12991
394.97	18.4206	-14.05197	2.05387	2.13499
395.805	18.4937	-14.04168	2.05975	2.14095
396.64	18.50889	-14.0333	2.065237	2.14638
397.475	18.4698	-14.025	2.07136	2.1525
398.31	18.4418	-14.0183	2.075567	2.15657
399.145	18.4527	-14.0093	2.08131	2.16231
399.979	18.425	-14.001	2.0872	2.16835
400.814	18.4824	-13.99192	2.0931	2.17458
401.649	18.4838	-13.9829	2.0982	2.17961
402.484	18.5821	-13.9784	2.103344	2.1846
403.319	18.5403	-13.9672	2.11107	2.19255
404.1543	18.4339	-13.9559	2.11879	2.20037
404.989	18.4782	-13.9522	2.1203	2.20207
405.824	18.403	-13.9459	2.12504	2.20687
406.659	18.6209	-13.9302	2.12994	2.21131
407.494	18.4707	-13.9293	2.13644	2.21807
408.3291	18.4066	-13.9247	2.142	2.22438
409.164	18.3156	-13.9095	2.14764	2.229841
409.999	18.4022	-13.9008	2.15179	2.2342
410.834	18.4473	-13.89221	2.15708	2.23963
411.669	18.4788	-13.8836	2.16204	2.24475
412.504	18.4777	-13.8761	2.16739	2.24998
413.339	18.5484	-13.8692	2.17448	2.25688
414.174	18.439	-13.8592	2.18116	2.26377
415.009	18.4614	-13.8494	2.18493	2.26763
415.844	18.4598	-13.8405	2.1913	2.273895
416.679	18.427	-13.8309	2.19675	2.27959
417.514	18.454	-13.8242	2.20103	2.283813
418.349	18.3716	-13.8168	2.20654	2.28967
419.184	18.39399	-13.8101	2.21088	2.29374
420.019	18.5533	-13.8048	2.21763	2.3004
420.854	18.4551	-13.7927	2.22314	2.30608
421.688	18.47946	-13.7825	2.2292	2.31195
422.523	18.4726	-13.7744	2.23342	2.31664
423.3584	18.4726	-13.76815	2.23763	2.32043
424.193	18.3547	-13.7557	2.24774	2.330821
425.028	18.4017	-13.7506	2.24895	2.33239
425.863	18.3959	-13.7382	2.25908	2.34256
426.698	18.4053	-13.732	2.26213	2.34569
427.5332	18.6444	-13.7262	2.26573	2.349165
428.368	18.413	-13.719	2.27	2.35384
429.203	18.47517	-13.71	2.27579	2.35959
430.038	18.6374	-13.7009	2.2837	2.36735
430.873	18.2862	-13.6921	2.28984	2.37345
431.708	18.4458	-13.6832	2.29237	2.37592
432.543	18.6215	-13.6687	2.298769	2.38247
433.378	18.4963	-13.666	2.30611	2.38952
434.213	18.5054	-13.6569	2.30946	2.3931
435.048	18.4063	-13.6492	2.31311	2.39703
435.883	18.4179	-13.64452	2.3162	2.39976
436.718	18.543	-13.63515	2.32224	2.40596
437.553	18.5458	-13.62467	2.32896	2.41305
438.3877	18.517	-13.6212	2.33447	2.41872
439.223	18.5941	-13.609	2.34191	2.42634
440.058	18.4452	-13.6051	2.34568	2.43007
440.893	18.307	-13.5926	2.35156	2.43633
441.728	18.4218	-13.5826	2.3553	2.44011
442.5625	18.5397	-13.5804	2.36043	2.44508
443.397	18.4672	-13.5717	2.36655	2.45111
444.232	18.3458	-13.5689	2.3705	2.45554
445.067	18.4535	-13.5419	2.37394	2.458997
445.902	18.3628	-13.5426	2.37621	2.46098
446.7373	18.4594	-13.5307	2.38051	2.4652
447.572	18.4762	-13.52485	2.38499	2.46992
448.407	18.569	-13.5169	2.391222	2.47623
449.242	18.4928	-13.50499	2.39749	2.48258
450.077	18.4865	-13.5032	2.40126	2.48671
450.912	18.53075	-13.4871	2.40682	2.49253
451.747	18.5722	-13.4878	2.41323	2.49577
452.582	18.4446	-13.4765	2.42013	2.50298
453.417	18.4747	-13.46418	2.42506	2.50792
454.252	18.4416	-13.4628	2.42995	2.51316
455.087	18.5418	-13.4431	2.43521	2.51876
455.922	18.5748	-13.4482	2.44218	2.525753
456.757	18.263	-13.4317	2.45091	2.53515
457.5918	17.9885	-13.422	2.46083	2.54522
458.427	18.4074	-13.4234	2.46388	2.54825
459.262	18.4318	-13.3984	2.46739	2.55196
460.097	18.4724	-13.3983	2.47691	2.56207
460.932	18.3974	-13.3878	2.47997	2.56559
461.7666	18.5209	-13.3792	2.48419	2.56953
462.602	18.4838	-13.3768	2.48879	2.57462
463.437	18.559	-13.3589	2.49525	2.58137
464.271	18.3812	-13.3651	2.50014	2.58702
465.106	18.60746	-13.34835	2.509181	2.59599
465.941	18.494	-13.344	2.51201	2.59875
466.776	18.50485	-13.3323	2.51661	2.60358
467.611	18.4819	-13.3211	2.52217	2.60954
468.446	18.5454	-13.3166	2.52694	2.6141
469.281	18.2993	-13.3045	2.529283	2.61675
470.116	18.5179	-13.3042	2.53711	2.6249
470.951	18.43166	-13.2831	2.54019	2.62807
471.786	18.4589	-13.2933	2.54392	2.63178
472.621	18.5071	-13.26827	2.55009	2.637773
473.456	18.49551	-13.2644	2.55407	2.64201
474.291	18.5486	-13.2558	2.558713	2.64709
475.126	18.4726	-13.24655	2.56481	2.65315
475.961	18.5622	-13.2375	2.5699	2.6582
476.7959	18.6519	-13.2328	2.57978	2.66848
477.631	18.3729	-13.2251	2.58316	2.67233
478.466	18.4611	-13.2121	2.587043	2.67623
479.301	18.5142	-13.2122	2.59162	2.68111
480.136	18.5271	-13.1963	2.59769	2.68695
480.9707	18.5161	-13.19099	2.6021	2.69222
481.806	18.4757	-13.182	2.60639	2.69646
482.641	18.4748	-13.1748	2.61121	2.7013
483.476	18.5143	-13.1651	2.61598	2.70608
484.311	18.534	-13.157	2.62174	2.71249
485.146	18.5578	-13.1487	2.6278	2.7191
485.98	18.506	-13.1441	2.63783	2.72913
486.815	18.0753	-13.1271	2.64595	2.73756
487.65	18.5731	-13.12796	2.65111	2.74325
488.485	18.4931	-13.1052	2.658267	2.75064
489.32	18.49217	-13.1086	2.6646	2.75739
490.155	18.4478	-13.0937	2.67045	2.76352
490.99	18.3905	-13.1005	2.67317	2.76636
491.8252	18.44	-13.0773	2.67584	2.76898
492.66	18.5682	-13.0774	2.681078	2.77474
493.495	18.5319	-13.069	2.69005	2.78401
494.33	18.381	-13.0591	2.70038	2.79443
495.165	18.434	-13.0484	2.70488	2.79943
496	18.4991	-13.041	2.71041	2.805506
496.835	18.573	-13.0276	2.7164	2.81149
497.67	18.4636	-13.0237	2.720592	2.815794
498.505	18.4943	-13.0156	2.72602	2.821784
499.34	18.3671	-13.0084	2.7297	2.82567
500.1748	18.32695	-13.0015	2.73127	2.82736
501.01	18.3751	-12.989	2.73302	2.82923
501.845	18.5037	-12.9793	2.73729	2.83353
502.68	18.4724	-12.9784	2.74187	2.83848
503.515	18.5586	-12.963	2.74674	2.84345
504.35	18.6108	-12.9548	2.75471	2.85184
505.185	18.5495	-12.9496	2.76537	2.86275
506.02	18.4961	-12.9402	2.77023	2.86706
506.854	18.50514	-12.9294	2.77638	2.87353
507.689	18.6396	-12.9247	2.783349	2.88155
508.524	18.466	-12.9145	2.79154	2.89061
509.359	18.539	-12.9063	2.79603	2.895
510.194	18.2783	-12.8967	2.79956	2.89869
511.0293	18.6138	-12.8871	2.80657	2.90632
511.864	18.4942	-12.8819	2.81203	2.91208
512.699	18.4984	-12.8732	2.81744	2.91781
513.534	18.525	-12.86477	2.82239	2.9232
514.369	18.4719	-12.856	2.82669	2.92803
515.2041	18.5501	-12.8482	2.83486	2.93627
516.039	18.513	-12.8412	2.83909	2.941
516.874	18.4806	-12.82589	2.847115	2.949883
517.709	18.5457	-12.8279	2.84988	2.95304
518.544	18.4913	-12.8114	2.85443	2.95762
519.379	18.6366	-12.8006	2.86019	2.96412
520.214	18.42342	-12.8043	2.86359	2.96756
521.049	18.467	-12.7907	2.86592	2.97017
521.884	18.51	-12.7801	2.87456	2.97931
522.719	18.4239	-12.7767	2.877383	2.98257
523.554	18.4402	-12.7661	2.88066	2.98608
524.389	18.5448	-12.7588	2.88458	2.9898
525.224	18.6443	-12.742	2.89073	2.99675
526.059	18.4333	-12.7373	2.90575	3.01293
526.894	18.4529	-12.7314	2.90877	3.01619
527.729	18.48877	-12.7232	2.91425	3.0218
528.563	18.4597	-12.7113	2.92342	3.0321
529.398	18.4899	-12.7022	2.92842	3.03788
530.2334	18.3984	-12.69546	2.93193	3.04158
531.068	18.4157	-12.679	2.935674	3.04562
531.903	18.3302	-12.6838	2.93651	3.04675
532.738	18.3484	-12.6694	2.93837	3.048887
533.573	18.4517	-12.6667	2.941453	3.05199
534.4082	18.5277	-12.6561	2.946	3.05641
535.243	18.4362	-12.6511	2.95089	3.062
536.078	18.6508	-12.636	2.958159	3.07001
536.913	18.5776	-12.6313	2.97112	3.083787
537.748	18.4829	-12.622	2.97867	3.092998
538.583	18.4951	-12.617	2.98444	3.09917
539.418	18.3856	-12.5999	2.98773	3.10299
540.253	18.3535	-12.6073	2.9909	3.10647
541.088	18.3332	-12.5861	2.99271	3.10864
541.923	18.4179	-12.5857	2.99496	3.11084
542.758	18.6264	-12.5695	3.00061	3.11703
543.593	18.5548	-12.5664	3.01244	3.12994
544.428	18.4018	-12.5568	3.01741	3.13643
545.2627	18.4415	-12.55544	3.02024	3.13963
546.098	18.5196	-12.5354	3.02537	3.1451
546.933	18.5393	-12.539	3.03101	3.15114
547.768	18.462	-12.5201	3.03629	3.1572
548.603	18.4935	-12.5208	3.04062	3.16226
549.4375	18.4152	-12.5015	3.04372	3.16559
550.272	18.3981	-12.4985	3.05894	3.182658
551.107	18.279	-12.4932	3.061872	3.18612
551.942	18.43417	-12.4823	3.0677	3.19236
552.777	18.3174	-12.46287	3.07078	3.195596
553.6123	18.6257	-12.4637	3.076	3.2014
554.447	18.3583	-12.4465	3.08422	3.21107
555.282	18.4375	-12.4477	3.0873	3.21406
556.117	18.2581	-12.4318	3.09368	3.221396
556.952	18.2465	-12.4358	3.09617	3.22485
557.787	18.3294	-12.4165	3.09836	3.22699
558.622	18.41482	-12.4163	3.101954	3.23069
559.457	18.4283	-12.4045	3.10494	3.23381
560.292	18.4666	-12.3994	3.10868	3.23836
561.127	18.5118	-12.3893	3.11361	3.24385
561.962	18.5551	-12.3816	3.11908	3.24999
562.797	18.5355	-12.3714	3.12488	3.25646
563.632	18.4877	-12.3656	3.12998	3.26207
564.4668	18.4808	-12.35601	3.13463	3.26784
565.302	18.5055	-12.3484	3.14011	3.27405
566.137	18.5056	-12.3387	3.14494	3.27977
566.972	18.5295	-12.3301	3.15087	3.28681
567.807	18.3793	-12.3231	3.16154	3.29948
568.6416	18.3483	-12.311	3.16367	3.302103
569.477	18.4686	-12.3095	3.16786	3.30656
570.312	18.4914	-12.2966	3.17332	3.31309
571.146	18.7988	-12.2875	3.18141	3.32183
571.981	18.3741	-12.2808	3.19637	3.34006
572.816	18.1979	-12.2666	3.196635	3.3404
573.651	18.2724	-12.267	3.19844	3.34268
574.486	18.3342	-12.2534	3.20009	3.34505
575.321	18.543	-12.2489	3.20546	3.3506
576.156	18.3698	-12.2385	3.21062	3.356508
576.991	18.462	-12.2291	3.21768	3.36514
577.826	18.2838	-12.2226	3.21938	3.36717
578.661	18.3813	-12.2138	3.22308	3.37161
579.496	18.4548	-12.2051	3.22756	3.37662
580.331	18.4769	-12.1974	3.23259	3.38256
581.166	18.4719	-12.1889	3.237781	3.38873
582.001	18.3437	-12.1808	3.24388	3.39589
582.836	18.4793	-12.1713	3.24869	3.40143
583.6709	18.4289	-12.1639	3.25318	3.407361
584.506	18.5139	-12.1556	3.25771	3.41272
585.341	18.4988	-12.1475	3.26342	3.41933
586.176	18.4895	-12.1373	3.26921	3.42618
587.011	18.5363	-12.1296	3.27602	3.43182
587.8457	18.3982	-12.1219	3.27938	3.43647
588.681	18.4609	-12.11305	3.28336	3.44076
589.516	18.499	-12.1062	3.28858	3.44729
590.351	18.4823	-12.09608	3.29444	3.454602
591.186	18.4808	-12.0883	3.29922	3.46064
592.021	18.4585	-12.0799	3.30374	3.466
592.855	18.4801	-12.0726	3.30834	3.47168
593.69	18.4852	-12.064	3.31396	3.47899
594.525	18.4483	-12.0563	3.31884	3.48534
595.36	18.4789	-12.0455	3.32381	3.49161
596.195	18.4223	-12.0385	3.32812	3.49747
597.03	18.4072	-12.03499	3.3411	3.51383
597.865	18.2617	-12.0212	3.3426	3.51648
598.7002	18.3586	-12.01351	3.34488	3.51889
599.535	18.3528	-12.0002	3.353441	3.52928
600.37	18.2991	-11.9984	3.35634	3.53333
601.205	18.351	-11.9883	3.3584	3.53614
602.04	18.5061	-11.9781	3.36471	3.543
602.875	18.4437	-11.971	3.36869	3.54819
603.71	18.4627	-11.9625	3.37393	3.55515
604.545	18.4333	-11.9553	3.37826	3.56087
605.38	18.8524	-11.953	3.38469	3.56838
606.215	18.4388	-11.94	3.40212	3.59226
607.0498	18.3103	-11.9314	3.40483	3.59648
607.885	18.301	-11.9244	3.4072	3.6
608.72	18.2841	-11.9087	3.41032	3.60332
609.555	18.3731	-11.9079	3.41183	3.60535
610.39	18.3958	-11.893	3.42429	3.6212
611.225	18.3012	-11.888	3.427237	3.62504
612.06	18.275	-11.879	3.42887	3.62801
612.895	18.3034	-11.871	3.43078	3.63035
613.729	18.3293	-11.8641	3.43244	3.63246
614.564	18.4048	-11.8587	3.44076	3.642334
615.399	18.3544	-11.8451	3.44287	3.646183
616.234	18.5212	-11.8376	3.44819	3.65315
617.069	18.5384	-11.8323	3.45715	3.66522
617.9043	18.3371	-11.82467	3.4614	3.67177
618.739	18.3836	-11.8126	3.46456	3.67626
619.574	18.4769	-11.8072	3.468874	3.68213
620.409	18.4129	-11.7964	3.47439	3.689537
621.244	18.3331	-11.795	3.476701	3.69312
622.0791	18.459	-11.7752	3.48158	3.69928
622.914	18.5321	-11.7734	3.49	3.71121
623.749	18.501	-11.7608	3.49997	3.72615
624.584	18.4287	-11.755	3.505446	3.735275
625.419	18.3301	-11.7438	3.50937	3.74085
626.254	18.3393	-11.7397	3.51164	3.74475
627.089	18.2806	-11.726	3.51413	3.74803
627.924	18.4914	-11.7145	3.51739	3.752327
628.759	18.4792	-11.7117	3.52884	3.76813
629.594	18.2518	-11.7049	3.53042	3.77181
630.429	18.39959	-11.6953	3.53567	3.77972
631.264	18.3925	-11.6854	3.54114	3.78751
632.099	18.4176	-11.6775	3.54443	3.79257
632.934	18.3884	-11.6734	3.5476	3.797864
633.769	18.384	-11.6622	3.55155	3.80439
634.604	18.3572	-11.6574	3.55355	3.80725
635.438	18.4542	-11.6464	3.55936	3.81512
636.273	18.4813	-11.6391	3.56624	3.8257
637.1084	18.4479	-11.6298	3.57168	3.83509
637.943	18.3074	-11.6212	3.57529	3.84115
638.778	18.2895	-11.6144	3.57619	3.8436
639.613	18.4561	-11.6066	3.58421	3.85476
640.448	18.2168	-11.6004	3.58602	3.85853
641.2832	18.4966	-11.5884	3.58923	3.86281
642.118	18.4076	-11.5799	3.5961	3.87362
642.953	18.4464	-11.5663	3.60103	3.88212
643.788	18.3878	-11.562	3.60305	3.88623
644.623	18.2574	-11.5536	3.6079	3.89417
645.458	18.2383	-11.5447	3.61222	3.90184
646.293	18.37442	-11.5368	3.61504	3.90596
647.128	18.26	-11.5291	3.62044	3.91489
647.963	18.2742	-11.5212	3.623862	3.92074
648.798	18.4532	-11.5111	3.62774	3.92708
649.633	18.3667	-11.5038	3.631197	3.93368
650.468	18.4016	-11.4959	3.63456	3.93934
651.303	18.3905	-11.468	3.63841	3.9464
652.1377	18.2912	-11.48588	3.63967	3.94898
652.973	18.24028	-11.468	3.64096	3.95208
653.808	18.3106	-11.4669	3.64378	3.95612
654.643	18.4197	-11.4547	3.64969	3.96562
655.478	18.4437	-11.4423	3.65525	3.97548
656.3125	18.493	-11.4368	3.65958	3.98532
657.147	18.376	-11.4261	3.6641	3.993149
657.982	18.3243	-11.4239	3.66814	4.00106
658.817	18.3902	-11.4112	3.67204	4.00881
659.652	18.3414	-11.4078	3.67585	4.01587
660.4873	18.3168	-11.3852	3.67664	4.01846
661.322	18.2644	-11.3896	3.68003	4.023973
662.157	18.60564	-11.37596	3.68525	4.03371
662.992	18.2303	-11.3719	3.69013	4.04602
663.827	18.2105	-11.3628	3.69373	4.05405
664.662	18.3292	-11.3455	3.69796	4.06202
665.497	18.2608	-11.3469	3.70044	4.0675
666.332	18.0528	-11.3382	3.70238	4.072
667.167	18.3606	-11.3287	3.70406	4.0751
668.002	18.3459	-11.3207	3.70777	4.08157
668.837	18.3352	-11.3123	3.71439	4.09554
669.672	18.3441	-11.3033	3.71702	4.10313
670.507	18.3373	-11.2964	3.71927	4.10893
671.3418	18.3753	-11.2866	3.72259	4.11639
672.177	18.29213	-11.26862	3.72566	4.12356
673.012	18.23317	-11.2717	3.72704	4.12713
673.847	18.2288	-11.256	3.72822	4.129992
674.682	18.2859	-11.2546	3.72962	4.13311
675.5166	18.3023	-11.2451	3.731822	4.1376
676.352	18.3394	-11.2363	3.73626	4.14613
677.187	18.5213	-11.2262	3.7422	4.16212
678.021	18.1557	-11.21932	3.74693	4.17975
678.856	18.2038	-11.212	3.75073	4.18844
679.691	18.3442	-11.2048	3.75138	4.19121
680.526	18.3449	-11.1964	3.75465	4.19917
681.361	18.3242	-11.1876	3.757911	4.20611
682.196	18.1496	-11.1733	3.759717	4.21173
683.031	18.1127	-11.1707	3.76083	4.21545
683.866	18.4391	-11.1621	3.76349	4.22122
684.701	18.1949	-11.1534	3.76952	4.23867
685.536	18.3249	-11.1455	3.77265	4.247242
686.371	18.178	-11.1337	3.77515	4.2568
687.206	18.2755	-11.1288	3.77543	4.25892
688.041	18.2929	-11.1138	3.77845	4.26644
688.876	18.2457	-11.1142	3.78006	4.2711
689.711	18.1798	-11.1032	3.78092	4.27449
690.5459	18.252	-11.0933	3.787806	4.29274
691.381	18.3081	-11.09086	3.78728	4.29626
692.216	18.0999	-11.0791	3.79011	4.3054
693.051	18.3447	-11.0692	3.79301	4.31241
693.886	18.2569	-11.0621	3.79667	4.32524
694.7207	18.1614	-11.0524	3.797648	4.331974
695.556	18.2376	-11.0452	3.79959	4.33773
696.391	18.0928	-11.0332	3.79956	4.34051
697.226	18.1113	-11.0289	3.80369	4.35144
698.061	18.2439	-11.0194	3.805289	4.35813
698.896	18.2267	-11.0151	3.80747	4.36665
699.73	18.2246	-11.0042	3.80888	4.37215
700.565	18.2768	-10.9943	3.81122	4.38022
701.4	18.2406	-10.9871	3.81315	4.38845
702.235	18.3197	-10.9752	3.814446	4.39573
703.07	18.1544	-10.9704	3.815583	4.40212
703.905	18.165	-10.97041	3.8173	4.40781
704.74	18.2074	-10.9522	3.81819	4.41294
705.5752	18.2713	-10.953	3.82174	4.4231
706.41	18.1846	-10.9357	3.82388	4.43573
707.245	18.1769	-10.92746	3.825099	4.44372
708.08	18.1533	-10.9207	3.82628	4.450501
708.915	18.1901	-10.9116	3.82803	4.45815
709.75	18.1715	-10.90304	3.82997	4.466444
710.585	18.1865	-10.8932	3.83146	4.47518
711.42	18.1612	-10.8859	3.83264	4.48306
712.255	18.1514	-10.8775	3.8339	4.489656
713.09	18.1714	-10.8698	3.83505	4.49759
713.9248	18.1639	-10.8613	3.8366	4.50607
714.76	18.1759	-10.8528	3.83809	4.51455
715.595	18.1104	-10.8444	3.83914	4.52187
716.43	18.1655	-10.836	3.84061	4.5284
717.265	18.1656	-10.8278	3.84212	4.53719
718.1	18.1404	-10.8187	3.84348	4.54557
718.935	18.1235	-10.81053	3.84427	4.55355
719.77	18.1174	-10.8017	3.84547	4.56164
720.604	18.0881	-10.7951	3.84645	4.56911
721.439	18.1385	-10.7861	3.84761	4.57636
722.274	18.085	-10.7779	3.84887	4.58476
723.109	18.1024	-10.7682	3.85008	4.5935
723.944	18.0529	-10.7604	3.85065	4.60158
724.7793	18.07353	-10.7535	3.85164	4.60815
725.614	18.0472	-10.7447	3.85282	4.61672
726.449	18.0816	-10.7364	3.85404	4.62477
727.284	18.05331	-10.7265	3.8549	4.63358
728.119	18.0588	-10.7192	3.85585	4.64045
728.9541	18.0684	-10.7112	3.85717	4.64916
729.789	18.04995	-10.7019	3.858093	4.65724
730.624	18.04619	-10.6938	3.85897	4.665422
731.459	18.0205	-10.6852	3.85982	4.6737
732.294	17.9956	-10.6783	3.86054	4.68052
733.129	18.025	-10.6679	3.86149	4.68893
733.964	18.0159	-10.6603	3.8623	4.6969
734.799	17.8438	-10.6587	3.86201	4.70156
735.634	17.737	-10.6592	3.86176	4.70323
736.469	17.6032	-10.6599	3.86078	4.70293
737.304	17.6114	-10.6606	3.86082	4.70371
738.139	17.6157	-10.6607	3.86116	4.7041
738.974	17.6397	-10.6601	3.86116	4.7045
739.809	17.5913	-10.6586	3.86105	4.70429
740.644	17.5216	-10.6606	3.86053	4.70359
741.479	17.5551	-10.6603	3.85479	4.70386
742.313	17.5518	-10.6606	3.79763	4.70404
743.148	17.57	-10.6586	1.35183	4.70369
743.9834	17.4968	-10.6586	1.06103	4.70365
744.818	17.4481	-10.6602	-5.5988	4.70335
745.653	17.5036	-10.6601	0.826958	4.70415
746.488	17.4907	-10.6598	0.888268	4.70392
747.323	17.5157	-10.6591	0.891326	4.703989
748.1582	17.4718	-10.6596	0.895656	4.70407
748.993	17.3861	-10.6601	0.897721	4.70358
749.828	17.4486	-10.6595	0.899982	4.70397
750.663	17.4635	-10.6591	0.901574	4.70414
751.498	17.4943	-10.659	0.9043	4.704113
752.333	17.4419	-10.6597	0.905692	4.70395
753.168	17.3637	-10.6602	0.907258	4.70354
754.003	17.4861	-10.6595	0.910088	4.70439
754.838	17.4819	-10.6595	0.908423	4.70433
755.673	17.8781	-10.6501	0.907546	4.707087
756.508	18.0135	-10.64183	0.909711	4.71155
757.343	18.0731	-10.6357	0.910698	4.71841
758.178	18.0236	-10.6249	0.911207	4.72789
759.0127	18.0078	-10.6169	0.912386	4.73566
759.848	17.9821	-10.6073	0.913769	4.74437
760.683	17.9289	-10.6002	0.914613	4.75233
761.518	17.96	-10.59266	0.9155575	4.759551
762.353	17.9412	-10.5837	0.916413	4.76856
763.1875	17.9336	-10.5762	0.917002	4.77624
764.022	17.9291	-10.5659	0.917906	4.78523
764.857	17.8676	-10.5587	0.918934	4.7935
765.692	17.9268	-10.5512	0.919791	4.80003
766.527	17.914	-10.5415	0.920736	4.80928
767.3623	17.9038	-10.5334	0.921605	4.81727
768.197	17.88657	-10.525	0.922469	4.82564
769.032	17.8332	-10.5168	0.923099	4.83334
769.867	17.876	-10.509	0.924454	4.84085
770.702	17.8788	-10.4997	0.924445	4.8498
771.537	17.857	-10.4913	0.925937	4.85832
772.372	17.8199	-10.482	0.92642	4.86735
773.207	17.8256	-10.4754	0.927729	4.87382
774.042	17.8153	-10.4669	0.928791	4.88226
774.877	17.8083	-10.459	0.929598	4.889987
775.712	17.7875	-10.4496	0.93079	4.89858
776.547	17.7854	-10.4407	0.932059	4.907176
777.382	17.7258	-10.4324	0.933321	4.91463
778.2168	17.763	-10.4259	0.934219	4.92175
779.052	17.7609	-10.4158	0.9354344	4.93087
779.887	17.7568	-10.4079	0.9363327	4.939261
780.722	17.7302	-10.3991	0.936891	4.948082
781.557	17.7236	-10.3919	0.93363	4.95434
782.3916	17.7212	-10.3836	0.93397	4.963058
783.227	17.7083	-10.3746	0.935404	4.97101
784.062	17.7208	-10.3669	0.936299	4.97934
784.896	17.6773	-10.357	0.936935	4.98845
785.731	17.6788	-10.3498	0.937923	4.9951
786.566	17.71088	-10.3415	0.9388057	5.00271
787.401	17.6448	-10.3333	0.939669	5.01131
788.236	17.6674	-10.3246	0.940616	5.01946
789.071	17.5914	-10.3161	0.941562	5.02919
789.906	17.5971	-10.3091	0.942465	5.03518
790.741	17.6386	-10.29883	0.943035	5.043642
791.576	17.5879	-10.2917	0.944024	5.05196
792.411	17.5892	-10.283	0.944918	5.06094
793.246	17.549	-10.2744	0.945836	5.07014
794.081	17.5486	-10.2667	0.946658	5.076231
794.916	17.5961	-10.2577	0.947913	5.0839
795.751	17.5433	-10.2507	0.948906	5.09282
796.586	17.5682	-10.2408	0.950213	5.101903
797.4209	17.5092	-10.2321	0.950137	5.1105
798.256	17.5136	-10.2245	0.950911	5.11635
799.091	17.5288	-10.21585	0.951535	5.12501
799.926	17.4943	-10.2092	0.952169	5.13334
800.761	17.4812	-10.1985	0.953219	5.14285
801.5957	17.4237	-10.1922	0.95406	5.14904
802.431	17.4394	-10.1837	0.954946	5.156445
803.266	17.431	-10.1749	0.955799	5.16603
804.101	17.436	-10.1661	0.956764	5.17479
804.936	17.4023	-10.1572	0.957793	5.183351
805.771	17.3565	-10.1496	0.959243	5.18945
806.605	17.3977	-10.1408	0.960046	5.19718
807.44	17.35132	-10.1332	0.9615947	5.20699
808.275	17.3785	-10.1245	0.962954	5.21534
809.11	17.3532	-10.1157	0.963795	5.22393
809.945	17.3223	-10.1094	0.964972	5.230422
810.78	17.3532	-10.0993	0.9661684	5.238163
811.615	17.3264	-10.0919	0.967149	5.24763
812.4502	17.3174	-10.0828	0.968469	5.25585
813.285	17.3076	-10.0734	0.96917	5.26492
814.12	17.262	-10.0665	0.970774	5.27105
814.955	17.2977	-10.0576	0.971784	5.27906
815.79	17.2416	-10.0493	0.972723	5.28735
816.625	17.2521	-10.0406	0.973209	5.29604
817.46	17.2164	-10.0317	0.974156	5.30483
818.295	17.1943	-10.025	0.974552	5.31163
819.13	17.2142	-10.0156	0.975121	5.31975
819.965	17.1749	-10.00697	0.975324	5.32847
820.7998	17.1664	-9.998868	0.975937	5.33741
821.635	17.1457	-9.98977	0.976304	5.34608
822.47	17.1512	-9.98333	0.976604	5.35221
823.305	17.1692	-9.97406	0.9768877	5.36059
824.14	17.1277	-9.96524	0.977547	5.36926
824.975	17.10947	-9.95703	0.977856	5.37791
825.81	17.0939	-9.94876	0.97813	5.38688
826.645	17.0675	-9.94105	0.978306	5.39302
827.479	17.1259	-9.93214	0.978722	5.40131
828.314	17.0511	-9.92422	0.978766	5.41031
829.149	17.0709	-9.91575	0.978684	5.41829
829.984	16.982	-9.906249	0.979342	5.42807
830.819	16.9865	-9.89973	0.9794631	5.43412
831.6543	17.0025	-9.89073	0.979651	5.44209
832.489	16.965	-9.88236	0.979605	5.451
833.324	16.9528	-9.87301	0.979826	5.46017
834.159	16.9105	-9.86464	0.980306	5.46874
834.994	16.8759	-9.857254	0.980252	5.475625
835.8291	16.922	-9.84908	0.980565	5.48258
836.664	16.8955	-9.84016	0.980526	5.491785
837.499	16.9009	-9.8314	0.9808796	5.50055
838.334	16.8464	-9.82264	0.980891	5.50947
839.169	16.849	-9.81593	0.980909	5.51531
840.004	16.868	-9.806798	0.981203	5.52328
840.839	16.8242	-9.79946	0.98139	5.53285
841.674	16.7973	-9.79013	0.981729	5.54124
842.509	16.7753	-9.7814	0.981701	5.549376
843.344	16.75771	-9.7749	0.981784	5.556694
844.179	16.7773	-9.76537	0.982197	5.56447
845.014	16.7213	-9.75696	0.9820888	5.57377
845.849	16.71793	-9.74826	0.982101	5.5818
846.684	16.6763	-9.73952	0.982737	5.59105
847.519	16.6621	-9.73265	0.982481	5.59739
848.354	16.6986	-9.72378	0.982481	5.60556
849.188	16.6613	-9.71514	0.982696	5.614121
850.023	16.6362	-9.706542	0.982725	5.62363
850.8584	16.5952	-9.69826	0.983095	5.63235
851.693	16.6075	-9.69063	0.983322	5.63863
852.528	16.62488	-9.68157	0.982998	5.64679
853.363	16.5671	-9.67307	0.983643	5.6562
854.198	16.55859	-9.66512	0.98329	5.66472
855.0332	16.4948	-9.65692	0.983698	5.673502
855.868	16.50272	-9.64944	0.983688	5.67898
856.703	16.5433	-9.639286	0.983975	5.68758
857.538	16.4841	-9.6315	0.984187	5.69664
858.373	16.4343	-9.622654	0.98423	5.70553
859.208	16.415	-9.614625	0.984292	5.71383
860.043	16.4064	-9.60776	0.984516	5.72
860.878	16.43565	-9.59781	0.984485	5.728303
861.713	16.3608	-9.58991	0.984525	5.73808
862.548	16.3667	-9.58066	0.984907	5.746809
863.383	16.3213	-9.57308	0.984835	5.7548
864.218	16.3373	-9.56498	0.98511	5.76091
865.053	16.3291	-9.55674	0.985188	5.77006
865.8877	16.2945	-9.54811	0.985532	5.77917
866.723	16.2861	-9.53954	0.985438	5.78738
867.558	16.2323	-9.53081	0.985417	5.79541
868.393	16.219	-9.52463	0.985811	5.80217
869.228	16.2595	-9.51546	0.986147	5.81056
870.0625	16.1944	-9.50599	0.986033	5.81962
870.897	16.1824	-9.49795	0.986352	5.82886
871.732	16.1173	-9.489665	0.9863286	5.83691
872.567	16.0968	-9.48257	0.986405	5.84363
873.402	16.1297	-9.47326	0.9866938	5.85116
874.2373	16.1042	-9.46542	0.98671	5.86123
875.072	16.0712	-9.45609	0.987117	5.87026
875.907	16.0116	-9.44743	0.987097	5.87814
876.742	16.0193	-9.44072	0.987977	5.88379
877.577	16.029	-9.43108	0.987699	5.89303
878.412	15.9842	-9.42434	0.9879899	5.90233
879.247	15.9608	-9.41328	0.987961	5.91131
880.082	15.9253	-9.40707	0.988283	5.918241
880.917	15.9563	-9.3981	0.988233	5.92556
881.752	15.9164	-9.38897	0.988589	5.93518
882.587	15.8947	-9.381074	0.98861	5.94406
883.422	15.85035	-9.3721	0.988877	5.95243
884.257	15.80402	-9.36615	0.988802	5.95874
885.0918	15.8219	-9.356801	0.98887	5.96687
885.927	15.7914	-9.3481	0.989208	5.97684
886.762	15.767	-9.33805	0.989124	5.98476
887.597	15.7414	-9.3306	0.9894	5.993144
888.432	15.6875	-9.3234	0.989778	6.00075
889.2666	15.72848	-9.31587	0.989824	6.00801
890.102	15.6928	-9.30607	0.990103	6.0173
890.937	15.6778	-9.29775	0.990308	6.02591
891.771	15.6278	-9.28885	0.990368	6.03397
892.606	15.5992	-9.28281	0.99038	6.04064
893.441	15.6275	-9.27329	0.990347	6.04873
894.276	15.5819	-9.264307	0.990511	6.05849
895.111	15.5752	-9.25566	0.990619	6.06721
895.946	15.5371	-9.24635	0.990941	6.07603
896.781	15.4831	-9.24067	0.990929	6.08289
897.616	15.4922	-9.2317	0.991195	6.08988
898.451	15.4681	-9.22218	0.991189	6.099196
899.286	15.4281	-9.21381	0.991579	6.10871
900.121	15.3952	-9.20598	0.991566	6.11706
900.956	15.3438	-9.1995	0.991879	6.12284
901.791	15.3912	-9.19029	0.991863	6.13146
902.626	15.31861	-9.1804	0.992273	6.14185
903.461	15.3104	-9.17059	0.992261	6.14997
904.2959	15.15443	-9.16262	0.992194	6.16126
905.131	15.2166	-9.15518	0.992514	6.16693
905.966	15.2598	-9.14689	0.992593	6.17469
906.801	15.2345	-9.1374	0.992589	6.18389
907.636	15.1324	-9.13169	0.992868	6.191824
908.4707	15.1768	-9.1223	0.992861	6.19859
909.306	15.1611	-9.116	0.993196	6.20509
910.141	15.1542	-9.10635	0.993153	6.21384
910.976	15.1028	-9.09782	0.992843	6.22346
911.811	15.0755	-9.08846	0.99288	6.23245
912.646	15.0274	-9.08106	0.993146	6.24107
913.48	15.1585	-9.07309	0.99291	6.24816
914.315	15.0855	-9.06572	0.993093	6.25785
915.15	14.805	-9.05582	0.993301	6.27008
915.985	14.81455	-9.0458	0.993146	6.27803
916.82	14.8333	-9.03887	0.993454	6.28395
917.655	14.89946	-9.03134	0.993363	6.2915
918.49	14.75076	-9.01993	0.993587	6.30323
919.3252	14.80557	-9.01682	0.993712	6.30748
920.16	14.809	-9.00555	0.9940052	6.31537
920.995	14.7605	-8.99926	0.993956	6.322401
921.83	14.7756	-8.99098	0.993968	6.32929
922.665	14.7298	-8.98084	0.99397	6.33983
923.5	14.704	-8.97247	0.994302	6.34913
924.335	14.584	-8.96265	0.9943347	6.36212
925.17	14.5216	-8.95472	0.994597	6.36694
926.005	14.5067	-8.944993	0.994595	6.36903
926.84	14.5463	-8.93862	0.994924	6.373301
927.6748	14.6503	-8.93064	0.994896	6.38448
928.51	14.4862	-8.92101	0.994913	6.40099
929.345	14.4482	-8.91355	0.9954775	6.40761
930.18	14.4418	-8.90669	0.995424	6.41474
931.015	14.3538	-8.90255	0.995501	6.4228
931.85	14.3722	-8.88577	0.995916	6.42851
932.685	14.3117	-8.87632	0.995807	6.4316
933.52	14.2778	-8.87379	0.995792	6.43365
934.354	14.4287	-8.86321	0.996091	6.43808
935.189	14.2956	-8.85372	0.9961946	6.45079
936.024	14.3142	-8.846632	0.996154	6.4572
936.859	14.2724	-8.841074	0.996363	6.46259
937.694	14.2877	-8.83235	0.996419	6.46985
938.5293	14.239	-8.82294	0.996383	6.48032
939.364	14.1932	-8.81342	0.996805	6.48935
940.199	14.1479	-8.80553	0.996773	6.49718
941.034	14.113	-8.79871	0.99712	6.5028
941.869	14.12271	-8.78934	0.997102	6.5113
942.7041	14.0493	-8.78056	0.997139	6.522294
943.539	14.0694	-8.76835	0.997478	6.53171
944.374	13.96934	-8.76316	0.9974637	6.54035
945.209	13.9564	-8.757	0.997452	6.54599
946.044	13.9737	-8.74797	0.997457	6.554389
946.879	13.9149	-8.73859	0.997793	6.56497
947.714	13.89123	-8.73054	0.997785	6.57434
948.549	13.8008	-8.72405	0.997778	6.58124
949.384	13.8443	-8.71468	0.997707	6.58799
950.219	13.7846	-8.7053	0.997734	6.5981
951.054	13.749	-8.6956	0.997772	6.60668
951.889	13.735	-8.68765	0.998038	6.61521
952.724	13.623	-8.68142	0.9979744	6.6243
953.559	13.6553	-8.67238	0.998282	6.63026
954.394	13.5968	-8.662776	0.99837	6.64099
955.229	13.5807	-8.654047	0.998383	6.64983
956.063	13.5083	-8.64653	0.998648	6.657486
956.898	13.5034	-8.63894	0.998587	6.6639
957.7334	13.4667	-8.63041	0.9986254	6.67444
958.568	13.4399	-8.62027	0.9990176	6.68431
959.403	13.3854	-8.61374	0.998986	6.69837
960.238	13.2458	-8.60759	0.998984	6.70824
961.073	13.2552	-8.59927	0.999196	6.711936
961.9082	13.3301	-8.58568	0.999161	6.71877
962.743	13.2721	-8.58044	0.9991889	6.73582
963.578	13.103	-8.56806	0.999281	6.74516
964.413	13.1135	-8.56546	0.9992736	6.75028
965.248	13.1069	-8.55525	0.9992	6.7542
966.083	13.0669	-8.54474	0.999456	6.76151
966.918	13.0527	-8.53616	0.999566	6.76935
967.753	12.9858	-8.52821	0.9995445	6.77817
968.588	12.9541	-8.52262	0.999778	6.78295
969.423	12.9657	-8.51276	0.999767	6.79206
970.258	12.8287	-8.50382	0.999856	6.80362
971.093	12.8168	-8.49473	0.999852	6.81238
971.928	12.7776	-8.48673	1.00009	6.82093
972.7627	12.7169	-8.48152	1.00006	6.82712
973.598	12.7406	-8.472434	1.00011	6.83462
974.433	12.6352	-8.46265	1.00014	6.84588
975.268	12.6421	-8.45346	1.00015	6.85457
976.103	12.5314	-8.44803	1.000394	6.86409
976.9375	12.5349	-8.43924	1.00037	6.8695
977.772	12.474	-8.43056	1.00072	6.87916
978.607	12.4403	-8.42063	1.00076	6.88873
979.442	12.361	-8.41217	1.000693	6.89827
980.277	12.27256	-8.4056	1.00068	6.906373
981.1123	10.3454	-8.39737	1.00069	6.93558
981.947	10.4787	-8.38702	1.001025	6.943316
982.782	9.89657	-8.37794	1.001278	6.958106
983.617	-0.01742534	-8.3707	1.00616	-0.00386019
984.452	-0.0214008	-8.36725	1.0055	-0.000879491
985.287	-0.0204137	-8.35598	1.00547	-0.0495123
986.122	-0.0187263	-8.34688	1.00546	-0.165741
986.957	-0.0200945	-8.33703	1.00578	-0.210762
987.777	-0.00682194	-8.33475	1.00583	-0.19596